"","Participant.Private.ID","Eye.Condition","Task.Name","Trial.Number","letter","Response","Attempt","Correct","Incorrect","Reaction.Time","contrast"
"1",4333590,"Mono","Contrast Sensitivity With Height","1","K","k",1,1,0,4983.79999999993,25
"2",4333590,"Mono","Contrast Sensitivity With Height","2","S","s",1,1,0,2606.69999999995,24
"3",4333590,"Mono","Contrast Sensitivity With Height","3","C","c",1,1,0,3581.09999999998,23
"4",4333590,"Mono","Contrast Sensitivity With Height","4","H","h",1,1,0,2575.80000000005,22
"5",4333590,"Mono","Contrast Sensitivity With Height","5","Z","z",1,1,0,1989.5,21
"6",4333590,"Mono","Contrast Sensitivity With Height","6","R","r",1,1,0,2676.40000000002,20
"7",4333590,"Mono","Contrast Sensitivity With Height","7","U","u",1,1,0,2208.60000000009,19
"8",4333590,"Mono","Contrast Sensitivity With Height","8","N","n",1,1,0,2092,18
"9",4333590,"Mono","Contrast Sensitivity With Height","9","V","v",1,1,0,3872.19999999995,17
"10",4333590,"Mono","Contrast Sensitivity With Height","10","D","d",1,1,0,2084.19999999995,16
"11",4333590,"Mono","Contrast Sensitivity With Height","11","O","o",1,1,0,2687.79999999993,15
"12",4333590,"Mono","Contrast Sensitivity With Height","12","V","v",1,1,0,2054.60000000009,14
"13",4333590,"Mono","Contrast Sensitivity With Height","13","H","h",1,1,0,2829.60000000009,13
"14",4333590,"Mono","Contrast Sensitivity With Height","14","S","s",1,1,0,2227.70000000007,12
"15",4333590,"Mono","Contrast Sensitivity With Height","15","R","r",1,1,0,2106.69999999995,11
"16",4333590,"Mono","Contrast Sensitivity With Height","16","C","c",1,1,0,1943.09999999998,10
"17",4333590,"Mono","Contrast Sensitivity With Height","17","D","d",1,1,0,2276.5,9
"18",4333590,"Mono","Contrast Sensitivity With Height","18","Z","z",1,1,0,2075.59999999998,8
"19",4333590,"Mono","Contrast Sensitivity With Height","19","U","u",1,1,0,2764.5,7
"20",4333590,"Mono","Contrast Sensitivity With Height","20","O","o",1,1,0,2270.80000000005,6
"21",4333590,"Mono","Contrast Sensitivity With Height","21","K","k",1,1,0,2205.80000000005,5
"22",4333590,"Mono","Contrast Sensitivity With Height","22","N","n",1,1,0,2704.30000000005,4
"23",4333590,"Mono","Contrast Sensitivity With Height","23","D","d",1,1,0,6879.40000000002,3
"24",4333590,"Mono","Contrast Sensitivity With Height","24","U","u",1,1,0,4126.39999999991,2
"25",4333590,"Mono","Contrast Sensitivity With Height","25","S","o",1,0,1,10720.4,1
"26",4333590,"Mono","Contrast Sensitivity With Height","26","H","h",1,1,0,3781,3
"27",4333590,"Mono","Contrast Sensitivity With Height","27","O","o",1,1,0,3393.90000000002,2
"28",4333590,"Mono","Contrast Sensitivity With Height","28","K","k",1,1,0,8111,1
"29",4333590,"Mono","Contrast Sensitivity With Height","29","V","n",1,0,1,8635.69999999995,1
"30",4333590,"Mono","Contrast Sensitivity With Height","30","N","n",1,1,0,2102.29999999993,3
"31",4333590,"Mono","Contrast Sensitivity With Height","31","C","o",1,0,1,2583.30000000005,2
"32",4333590,"Mono","Contrast Sensitivity With Height","32","Z","z",1,1,0,2049,4
"33",4333590,"Mono","Contrast Sensitivity With Height","33","R","r",1,1,0,2756.59999999998,3
"34",4333590,"Mono","Contrast Sensitivity With Height","34","D","d",1,1,0,2442.69999999995,2
"35",4333590,"Mono","Contrast Sensitivity With Height","35","C","z",1,0,1,5793.80000000005,1
"36",4333590,"Mono","Contrast Sensitivity With Height","36","S","s",1,1,0,2449.79999999993,3
"37",4333590,"Mono","Contrast Sensitivity With Height","37","K","k",1,1,0,2872.40000000002,2
"38",4333590,"Mono","Contrast Sensitivity With Height","38","U","z",1,0,1,5389.90000000002,1
"39",4333590,"Mono","Contrast Sensitivity With Height","39","V","v",1,1,0,2443.80000000005,3
"40",4333590,"Mono","Contrast Sensitivity With Height","40","R","f",1,0,1,2444.40000000002,2
"41",4333590,"Mono","Contrast Sensitivity With Height","41","O","o",1,1,0,2209.09999999998,4
"42",4333590,"Mono","Contrast Sensitivity With Height","42","N","n",1,1,0,2359.69999999995,3
"43",4333590,"Mono","Contrast Sensitivity With Height","43","H","h",1,1,0,2748.79999999993,2
"44",4333590,"Mono","Contrast Sensitivity With Height","44","Z","s",1,0,1,4500.29999999993,1
"45",4381159,"Mono","Contrast Sensitivity With Height","1","N","N",1,1,0,16202.3650000338,25
"46",4381159,"Mono","Contrast Sensitivity With Height","2","H","H",1,1,0,12411.3549999893,24
"47",4381159,"Mono","Contrast Sensitivity With Height","3","C","C",1,1,0,6515.77499997802,23
"48",4381159,"Mono","Contrast Sensitivity With Height","4","R","FR",1,0,1,6982.88999998476,22
"49",4381159,"Mono","Contrast Sensitivity With Height","5","K","K",1,1,0,4411.05500003323,24
"50",4381159,"Mono","Contrast Sensitivity With Height","6","U","U",1,1,0,3322.44500005618,23
"51",4381159,"Mono","Contrast Sensitivity With Height","7","D","D",1,1,0,3481.00499995053,22
"52",4381159,"Mono","Contrast Sensitivity With Height","8","V","V",1,1,0,3069.58000001032,21
"53",4381159,"Mono","Contrast Sensitivity With Height","9","Z","Z",1,1,0,3401.42000000924,20
"54",4381159,"Mono","Contrast Sensitivity With Height","10","O","O",1,1,0,5737.45000001509,19
"55",4381159,"Mono","Contrast Sensitivity With Height","11","S","S",1,1,0,5375.86499995086,18
"56",4381159,"Mono","Contrast Sensitivity With Height","12","Z","Z",1,1,0,2661.96500009391,17
"57",4381159,"Mono","Contrast Sensitivity With Height","13","S","S",1,1,0,4420.35999998916,16
"58",4381159,"Mono","Contrast Sensitivity With Height","14","R","R",1,1,0,3419.68000004999,15
"59",4381159,"Mono","Contrast Sensitivity With Height","15","C","C",1,1,0,2838.37500005029,14
"60",4381159,"Mono","Contrast Sensitivity With Height","16","V","V",1,1,0,2949.56999993883,13
"61",4381159,"Mono","Contrast Sensitivity With Height","17","D","D",1,1,0,2644.06500000041,12
"62",4381159,"Mono","Contrast Sensitivity With Height","18","N","N",1,1,0,2663.87500008568,11
"63",4381159,"Mono","Contrast Sensitivity With Height","19","K","K",1,1,0,3282.82500000205,10
"64",4381159,"Mono","Contrast Sensitivity With Height","20","H","H",1,1,0,2702.41999998689,9
"65",4381159,"Mono","Contrast Sensitivity With Height","21","O","O",1,1,0,2123.22499998845,8
"66",4381159,"Mono","Contrast Sensitivity With Height","22","U","U",1,1,0,2843.58999994583,7
"67",4381159,"Mono","Contrast Sensitivity With Height","23","N","N",1,1,0,4259.57499991637,6
"68",4381159,"Mono","Contrast Sensitivity With Height","24","D","D",1,1,0,4450.80999995116,5
"69",4381159,"Mono","Contrast Sensitivity With Height","25","K","k",1,1,0,5018.26500007883,4
"70",4381159,"Mono","Contrast Sensitivity With Height","26","V","V",1,1,0,3811.00999994669,3
"71",4381159,"Mono","Contrast Sensitivity With Height","27","S","B",1,0,1,9418.04999997839,2
"72",4381159,"Mono","Contrast Sensitivity With Height","28","H","H",1,1,0,2445.5799999414,4
"73",4381159,"Mono","Contrast Sensitivity With Height","29","C","C",1,1,0,4003.16999992356,3
"74",4381159,"Mono","Contrast Sensitivity With Height","30","U","U",1,1,0,3535.28499999084,2
"75",4381159,"Mono","Contrast Sensitivity With Height","31","R","P",1,0,1,4030.97500000149,1
"76",4381159,"Mono","Contrast Sensitivity With Height","32","Z","R",1,0,1,4153.64499995485,3
"77",4381159,"Mono","Contrast Sensitivity With Height","33","O","O",1,1,0,3115.77999999281,5
"78",4381159,"Mono","Contrast Sensitivity With Height","34","N","N",1,1,0,2364.14499999955,4
"79",4381159,"Mono","Contrast Sensitivity With Height","35","K","K",1,1,0,5670.63499998767,3
"80",4381159,"Mono","Contrast Sensitivity With Height","36","U","H",1,0,1,3157.38000010606,2
"81",4381159,"Mono","Contrast Sensitivity With Height","37","C","C",1,1,0,3690.39000000339,4
"82",4381159,"Mono","Contrast Sensitivity With Height","38","O","O",1,1,0,3485.65000004601,3
"83",4381159,"Mono","Contrast Sensitivity With Height","39","S","S",1,1,0,4904.79499998037,2
"84",4381159,"Mono","Contrast Sensitivity With Height","40","D","Y",1,0,1,13320.8100000629,1
"85",4381159,"Mono","Contrast Sensitivity With Height","41","H","H",1,1,0,3225.39999999572,3
"86",4381159,"Mono","Contrast Sensitivity With Height","42","V","V",1,1,0,4524.96499998961,2
"87",4381159,"Mono","Contrast Sensitivity With Height","43","R","P",1,0,1,9257.22500006668,1
"88",4381159,"Mono","Contrast Sensitivity With Height","44","Z","K",1,0,1,6266.58000005409,3
"89",4443776,"Mono","Contrast Sensitivity With Height","1","V","v",1,1,0,3033.30000019073,25
"90",4443776,"Mono","Contrast Sensitivity With Height","2","K","k",1,1,0,2982.5,24
"91",4443776,"Mono","Contrast Sensitivity With Height","3","D","d",1,1,0,2521.7000002861,23
"92",4443776,"Mono","Contrast Sensitivity With Height","4","O","o",1,1,0,2268.2000002861,22
"93",4443776,"Mono","Contrast Sensitivity With Height","5","Z","z",1,1,0,6303.2999997139,21
"94",4443776,"Mono","Contrast Sensitivity With Height","6","S","s",1,1,0,2852.59999990463,20
"95",4443776,"Mono","Contrast Sensitivity With Height","7","R","r",1,1,0,1805.2000002861,19
"96",4443776,"Mono","Contrast Sensitivity With Height","8","H","h",1,1,0,2147,18
"97",4443776,"Mono","Contrast Sensitivity With Height","9","N","n",1,1,0,2602.80000019073,17
"98",4443776,"Mono","Contrast Sensitivity With Height","10","U","u",1,1,0,2031,16
"99",4443776,"Mono","Contrast Sensitivity With Height","11","C","c",1,1,0,2027.40000009537,15
"100",4443776,"Mono","Contrast Sensitivity With Height","12","O","o",1,1,0,1903.59999990463,14
"101",4443776,"Mono","Contrast Sensitivity With Height","13","Z","z",1,1,0,2272.59999990463,13
"102",4443776,"Mono","Contrast Sensitivity With Height","14","S","s",1,1,0,1859,12
"103",4443776,"Mono","Contrast Sensitivity With Height","15","H","h",1,1,0,2650.59999990463,11
"104",4443776,"Mono","Contrast Sensitivity With Height","16","V","v",1,1,0,2226.40000009537,10
"105",4443776,"Mono","Contrast Sensitivity With Height","17","K","k",1,1,0,2190.09999990463,9
"106",4443776,"Mono","Contrast Sensitivity With Height","18","C","c",1,1,0,1941.2000002861,8
"107",4443776,"Mono","Contrast Sensitivity With Height","19","N","n",1,1,0,2055.40000009537,7
"108",4443776,"Mono","Contrast Sensitivity With Height","20","R","r",1,1,0,2147.59999990463,6
"109",4443776,"Mono","Contrast Sensitivity With Height","21","D","d",1,1,0,2092.40000009537,5
"110",4443776,"Mono","Contrast Sensitivity With Height","22","U","u",1,1,0,1875.19999980927,4
"111",4443776,"Mono","Contrast Sensitivity With Height","23","H","h",1,1,0,2197.5,3
"112",4443776,"Mono","Contrast Sensitivity With Height","24","D","d",1,1,0,2148.30000019073,2
"113",4443776,"Mono","Contrast Sensitivity With Height","25","N","r",1,0,1,4110.80000019073,1
"114",4443776,"Mono","Contrast Sensitivity With Height","26","V","v",1,1,0,1846.59999990463,3
"115",4443776,"Mono","Contrast Sensitivity With Height","27","Z","z",1,1,0,1940.30000019073,2
"116",4443776,"Mono","Contrast Sensitivity With Height","28","U","u",1,1,0,3557.40000009537,1
"117",4443776,"Mono","Contrast Sensitivity With Height","29","S","g",1,0,1,3697.90000009537,1
"118",4443776,"Mono","Contrast Sensitivity With Height","30","K","k",1,1,0,2165.19999980927,3
"119",4443776,"Mono","Contrast Sensitivity With Height","31","R","r",1,1,0,1971,2
"120",4443776,"Mono","Contrast Sensitivity With Height","32","C","c",1,1,0,2309.2999997139,1
"121",4443776,"Mono","Contrast Sensitivity With Height","33","O","o",1,1,0,2555.19999980927,1
"122",4443776,"Mono","Contrast Sensitivity With Height","34","V","k",1,0,1,3823.80000019073,1
"123",4443776,"Mono","Contrast Sensitivity With Height","35","C","c",1,1,0,1778,3
"124",4443776,"Mono","Contrast Sensitivity With Height","36","S","s",1,1,0,2101.59999990463,2
"125",4443776,"Mono","Contrast Sensitivity With Height","37","U","c",1,0,1,3574.80000019073,1
"126",4443776,"Mono","Contrast Sensitivity With Height","38","R","r",1,1,0,2160.30000019073,3
"127",4443776,"Mono","Contrast Sensitivity With Height","39","N"," n",1,1,0,3575.39999961853,2
"128",4443776,"Mono","Contrast Sensitivity With Height","40","K","r",1,0,1,4956.89999961853,1
"129",4443776,"Mono","Contrast Sensitivity With Height","41","H","h",1,1,0,1961.69999980927,3
"130",4443776,"Mono","Contrast Sensitivity With Height","42","Z","z",1,1,0,2827.30000019073,2
"131",4443776,"Mono","Contrast Sensitivity With Height","43","O","c",1,0,1,4633.7000002861,1
"132",4443776,"Mono","Contrast Sensitivity With Height","44","D","d",1,1,0,2334.30000019073,3
"133",4449137,"Mono","Contrast Sensitivity With Height","1","O","o",1,1,0,19933.5,25
"134",4449137,"Mono","Contrast Sensitivity With Height","2","D","d",1,1,0,2790.70000004768,24
"135",4449137,"Mono","Contrast Sensitivity With Height","3","Z","z",1,1,0,2937.60000014305,23
"136",4449137,"Mono","Contrast Sensitivity With Height","4","N","n",1,1,0,1940.70000004768,22
"137",4449137,"Mono","Contrast Sensitivity With Height","5","C","c",1,1,0,2793.60000014305,21
"138",4449137,"Mono","Contrast Sensitivity With Height","6","H","h",1,1,0,2287.29999995232,20
"139",4449137,"Mono","Contrast Sensitivity With Height","7","U","u",1,1,0,2117.89999985695,19
"140",4449137,"Mono","Contrast Sensitivity With Height","8","S","s",1,1,0,2156.20000004768,18
"141",4449137,"Mono","Contrast Sensitivity With Height","9","R","r",1,1,0,2077.19999980927,17
"142",4449137,"Mono","Contrast Sensitivity With Height","10","V","v",1,1,0,1696.90000009537,16
"143",4449137,"Mono","Contrast Sensitivity With Height","11","K","k",1,1,0,2259.29999995232,15
"144",4449137,"Mono","Contrast Sensitivity With Height","12","S","s",1,1,0,2223.79999995232,14
"145",4449137,"Mono","Contrast Sensitivity With Height","13","K","k",1,1,0,2004.40000009537,13
"146",4449137,"Mono","Contrast Sensitivity With Height","14","D","d",1,1,0,1962.89999985695,12
"147",4449137,"Mono","Contrast Sensitivity With Height","15","Z","z",1,1,0,2024.90000009537,11
"148",4449137,"Mono","Contrast Sensitivity With Height","16","R","r",1,1,0,2029.09999990463,10
"149",4449137,"Mono","Contrast Sensitivity With Height","17","H","h",1,1,0,1582.40000009537,9
"150",4449137,"Mono","Contrast Sensitivity With Height","18","V","v",1,1,0,1686.40000009537,8
"151",4449137,"Mono","Contrast Sensitivity With Height","19","C","c",1,1,0,2217.20000004768,7
"152",4449137,"Mono","Contrast Sensitivity With Height","20","N","n",1,1,0,2215.09999990463,6
"153",4449137,"Mono","Contrast Sensitivity With Height","21","O","o",1,1,0,2174.59999990463,5
"154",4449137,"Mono","Contrast Sensitivity With Height","22","U","u",1,1,0,3802.79999995232,4
"155",4449137,"Mono","Contrast Sensitivity With Height","23","S","s",1,1,0,14608.2999999523,3
"156",4449137,"Mono","Contrast Sensitivity With Height","24","N","n",1,1,0,3023.59999990463,2
"157",4449137,"Mono","Contrast Sensitivity With Height","25","R","y",1,0,1,10207.9000000954,1
"158",4449137,"Mono","Contrast Sensitivity With Height","26","V","v",1,1,0,2897.19999980927,3
"159",4449137,"Mono","Contrast Sensitivity With Height","27","D","d",1,1,0,2932,2
"160",4449137,"Mono","Contrast Sensitivity With Height","28","H","w",1,0,1,5972.70000004768,1
"161",4449137,"Mono","Contrast Sensitivity With Height","29","O","o",1,1,0,2535.70000004768,3
"162",4449137,"Mono","Contrast Sensitivity With Height","30","K","x",1,0,1,17460.3999998569,2
"163",4449137,"Mono","Contrast Sensitivity With Height","31","Z","z",1,1,0,2350.70000004768,4
"164",4449137,"Mono","Contrast Sensitivity With Height","32","C","c",1,1,0,2441.59999990463,3
"165",4449137,"Mono","Contrast Sensitivity With Height","33","U","u",1,1,0,9661.79999995232,2
"166",4449137,"Mono","Contrast Sensitivity With Height","34","D","x",1,0,1,8370.40000009537,1
"167",4449137,"Mono","Contrast Sensitivity With Height","35","V","v",1,1,0,5268.10000014305,3
"168",4449137,"Mono","Contrast Sensitivity With Height","36","O","q",1,0,1,9026.19999980927,2
"169",4449137,"Mono","Contrast Sensitivity With Height","37","R","r",1,1,0,3223.59999990463,4
"170",4449137,"Mono","Contrast Sensitivity With Height","38","N","n",1,1,0,3133.70000004768,3
"171",4449137,"Mono","Contrast Sensitivity With Height","39","H","h",1,1,0,2728.60000014305,2
"172",4449137,"Mono","Contrast Sensitivity With Height","40","S","k",1,0,1,17201.7999999523,1
"173",4449137,"Mono","Contrast Sensitivity With Height","41","U","u",1,1,0,3032.20000004768,3
"174",4449137,"Mono","Contrast Sensitivity With Height","42","K","k",1,1,0,3389.10000014305,2
"175",4449137,"Mono","Contrast Sensitivity With Height","43","C","x",1,0,1,4402.79999995232,1
"176",4449137,"Mono","Contrast Sensitivity With Height","44","Z","z",1,1,0,5363.89999985695,3
"177",4450348,"Mono","Contrast Sensitivity With Height","1","C","c",1,1,0,8742.20000004768,25
"178",4450348,"Mono","Contrast Sensitivity With Height","2","K","k",1,1,0,4047.29999995232,24
"179",4450348,"Mono","Contrast Sensitivity With Height","3","D","d",1,1,0,1536.09999990463,23
"180",4450348,"Mono","Contrast Sensitivity With Height","4","Z","z",1,1,0,2638.5,22
"181",4450348,"Mono","Contrast Sensitivity With Height","5","O","o",1,1,0,1586.79999995232,21
"182",4450348,"Mono","Contrast Sensitivity With Height","6","N","n",1,1,0,1455.5,20
"183",4450348,"Mono","Contrast Sensitivity With Height","7","V","v",1,1,0,1501,19
"184",4450348,"Mono","Contrast Sensitivity With Height","8","R","r",1,1,0,1290.5,18
"185",4450348,"Mono","Contrast Sensitivity With Height","9","S","s",1,1,0,2363.29999995232,17
"186",4450348,"Mono","Contrast Sensitivity With Height","10","U","u",1,1,0,1775.20000004768,16
"187",4450348,"Mono","Contrast Sensitivity With Height","11","H","h",1,1,0,3068.70000004768,15
"188",4450348,"Mono","Contrast Sensitivity With Height","12","S","s",1,1,0,1235.5,14
"189",4450348,"Mono","Contrast Sensitivity With Height","13","Z","z",1,1,0,1353.09999990463,13
"190",4450348,"Mono","Contrast Sensitivity With Height","14","U","u",1,1,0,1220,12
"191",4450348,"Mono","Contrast Sensitivity With Height","15","O","o",1,1,0,1208.10000014305,11
"192",4450348,"Mono","Contrast Sensitivity With Height","16","V","v",1,1,0,1164.20000004768,10
"193",4450348,"Mono","Contrast Sensitivity With Height","17","K","k",1,1,0,1434.19999980927,9
"194",4450348,"Mono","Contrast Sensitivity With Height","18","D","d",1,1,0,1260.09999990463,8
"195",4450348,"Mono","Contrast Sensitivity With Height","19","N","n",1,1,0,1301.59999990463,7
"196",4450348,"Mono","Contrast Sensitivity With Height","20","H","h",1,1,0,1434.59999990463,6
"197",4450348,"Mono","Contrast Sensitivity With Height","21","C","c",1,1,0,1626,5
"198",4450348,"Mono","Contrast Sensitivity With Height","22","R","r",1,1,0,1659.39999985695,4
"199",4450348,"Mono","Contrast Sensitivity With Height","23","H","h",1,1,0,2210.20000004768,3
"200",4450348,"Mono","Contrast Sensitivity With Height","24","V","v",1,1,0,2621.5,2
"201",4450348,"Mono","Contrast Sensitivity With Height","25","R","c",1,0,1,6365.90000009537,1
"202",4450348,"Mono","Contrast Sensitivity With Height","26","C","c",1,1,0,1929.20000004768,3
"203",4450348,"Mono","Contrast Sensitivity With Height","27","Z","z",1,1,0,2144.39999985695,2
"204",4450348,"Mono","Contrast Sensitivity With Height","28","K","h",1,0,1,4080.40000009537,1
"205",4450348,"Mono","Contrast Sensitivity With Height","29","D","d",1,1,0,1829.89999985695,3
"206",4450348,"Mono","Contrast Sensitivity With Height","30","N","n",1,1,0,1584.59999990463,2
"207",4450348,"Mono","Contrast Sensitivity With Height","31","O","h",1,0,1,3426.89999985695,1
"208",4450348,"Mono","Contrast Sensitivity With Height","32","S","s",1,1,0,1996.10000014305,3
"209",4450348,"Mono","Contrast Sensitivity With Height","33","U","u",1,1,0,2348.29999995232,2
"210",4450348,"Mono","Contrast Sensitivity With Height","34","V","s",1,0,1,2853,1
"211",4450348,"Mono","Contrast Sensitivity With Height","35","K","k",1,1,0,1873.20000004768,3
"212",4450348,"Mono","Contrast Sensitivity With Height","36","R","r",1,1,0,1760.89999985695,2
"213",4450348,"Mono","Contrast Sensitivity With Height","37","O","s",1,0,1,5760.79999995232,1
"214",4450348,"Mono","Contrast Sensitivity With Height","38","N","n",1,1,0,1355.20000004768,3
"215",4450348,"Mono","Contrast Sensitivity With Height","39","U","u",1,1,0,3071.60000014305,2
"216",4450348,"Mono","Contrast Sensitivity With Height","40","D","t",1,0,1,2987.20000004768,1
"217",4450348,"Mono","Contrast Sensitivity With Height","41","H","h",1,1,0,1374.19999980927,3
"218",4450348,"Mono","Contrast Sensitivity With Height","42","S","s",1,1,0,1519.40000009537,2
"219",4450348,"Mono","Contrast Sensitivity With Height","43","Z","s",1,0,1,3987.70000004768,1
"220",4450348,"Mono","Contrast Sensitivity With Height","44","C","c",1,1,0,1496.29999995232,3
"221",4447916,"Mono","Contrast Sensitivity With Height","1","S","s",1,1,0,935,25
"222",4447916,"Mono","Contrast Sensitivity With Height","2","H","h",1,1,0,890,24
"223",4447916,"Mono","Contrast Sensitivity With Height","3","V","v",1,1,0,622,23
"224",4447916,"Mono","Contrast Sensitivity With Height","4","N","n",1,1,0,454,22
"225",4447916,"Mono","Contrast Sensitivity With Height","5","R","r",1,1,0,441,21
"226",4447916,"Mono","Contrast Sensitivity With Height","6","C","c",1,1,0,432,20
"227",4447916,"Mono","Contrast Sensitivity With Height","7","K","k",1,1,0,476,19
"228",4447916,"Mono","Contrast Sensitivity With Height","8","O","o",1,1,0,502,18
"229",4447916,"Mono","Contrast Sensitivity With Height","9","U","u",1,1,0,462,17
"230",4447916,"Mono","Contrast Sensitivity With Height","10","D","d",1,1,0,413,16
"231",4447916,"Mono","Contrast Sensitivity With Height","11","Z","z",1,1,0,415,15
"232",4447916,"Mono","Contrast Sensitivity With Height","12","N","n",1,1,0,926,14
"233",4447916,"Mono","Contrast Sensitivity With Height","13","H","h",1,1,0,486,13
"234",4447916,"Mono","Contrast Sensitivity With Height","14","S","s",1,1,0,430,12
"235",4447916,"Mono","Contrast Sensitivity With Height","15","V","v",1,1,0,431,11
"236",4447916,"Mono","Contrast Sensitivity With Height","16","Z","z",1,1,0,408,10
"237",4447916,"Mono","Contrast Sensitivity With Height","17","K","k",1,1,0,568,9
"238",4447916,"Mono","Contrast Sensitivity With Height","18","D","d",1,1,0,438,8
"239",4447916,"Mono","Contrast Sensitivity With Height","19","U","u",1,1,0,533,7
"240",4447916,"Mono","Contrast Sensitivity With Height","20","C","o",1,0,1,536,6
"241",4447916,"Mono","Contrast Sensitivity With Height","21","O","o",1,1,0,478,8
"242",4447916,"Mono","Contrast Sensitivity With Height","22","R","r",1,1,0,565,7
"243",4447916,"Mono","Contrast Sensitivity With Height","23","C","",1,0,1,901,6
"244",4447916,"Mono","Contrast Sensitivity With Height","24","N","n",1,1,0,961,8
"245",4447916,"Mono","Contrast Sensitivity With Height","25","V","v",1,1,0,934,7
"246",4447916,"Mono","Contrast Sensitivity With Height","26","U","u",1,1,0,503,6
"247",4447916,"Mono","Contrast Sensitivity With Height","27","O","o",1,1,0,475,5
"248",4447916,"Mono","Contrast Sensitivity With Height","28","R","r",1,1,0,569,4
"249",4447916,"Mono","Contrast Sensitivity With Height","29","D","r",1,0,1,10,3
"250",4447916,"Mono","Contrast Sensitivity With Height","30","K","k",1,1,0,493,5
"251",4447916,"Mono","Contrast Sensitivity With Height","31","S","s",1,1,0,540,4
"252",4447916,"Mono","Contrast Sensitivity With Height","32","Z","v ",1,0,1,951,3
"253",4447916,"Mono","Contrast Sensitivity With Height","33","H","h",1,1,0,492,5
"254",4447916,"Mono","Contrast Sensitivity With Height","34","V","v",1,1,0,887,4
"255",4447916,"Mono","Contrast Sensitivity With Height","35","H","h",1,1,0,611,3
"256",4447916,"Mono","Contrast Sensitivity With Height","36","K","f",1,0,1,925,2
"257",4447916,"Mono","Contrast Sensitivity With Height","37","D","d",1,1,0,490,4
"258",4447916,"Mono","Contrast Sensitivity With Height","38","O","o",1,1,0,605,3
"259",4447916,"Mono","Contrast Sensitivity With Height","39","Z","p",1,0,1,955,2
"260",4447916,"Mono","Contrast Sensitivity With Height","40","S","s",1,1,0,960,4
"261",4447916,"Mono","Contrast Sensitivity With Height","41","R","r",1,1,0,581,3
"262",4447916,"Mono","Contrast Sensitivity With Height","42","C","o",1,0,1,616,2
"263",4447916,"Mono","Contrast Sensitivity With Height","43","N","n",1,1,0,515,4
"264",4447916,"Mono","Contrast Sensitivity With Height","44","U","o",1,0,1,916,3
"265",4448050,"Mono","Contrast Sensitivity With Height","1","C","c",1,1,0,563,25
"266",4448050,"Mono","Contrast Sensitivity With Height","2","N","n",1,1,0,525,24
"267",4448050,"Mono","Contrast Sensitivity With Height","3","R","r",1,1,0,480,23
"268",4448050,"Mono","Contrast Sensitivity With Height","4","Z","z",1,1,0,469,22
"269",4448050,"Mono","Contrast Sensitivity With Height","5","D","d",1,1,0,422,21
"270",4448050,"Mono","Contrast Sensitivity With Height","6","O","o",1,1,0,488,20
"271",4448050,"Mono","Contrast Sensitivity With Height","7","S","s",1,1,0,450,19
"272",4448050,"Mono","Contrast Sensitivity With Height","8","V","v",1,1,0,437,18
"273",4448050,"Mono","Contrast Sensitivity With Height","9","K","k",1,1,0,407,17
"274",4448050,"Mono","Contrast Sensitivity With Height","10","U","u",1,1,0,894,16
"275",4448050,"Mono","Contrast Sensitivity With Height","11","H","h",1,1,0,404,15
"276",4448050,"Mono","Contrast Sensitivity With Height","12","K","k",1,1,0,402,14
"277",4448050,"Mono","Contrast Sensitivity With Height","13","H","h",1,1,0,504,13
"278",4448050,"Mono","Contrast Sensitivity With Height","14","Z","z",1,1,0,484,12
"279",4448050,"Mono","Contrast Sensitivity With Height","15","D","d",1,1,0,466,11
"280",4448050,"Mono","Contrast Sensitivity With Height","16","C","c",1,1,0,456,10
"281",4448050,"Mono","Contrast Sensitivity With Height","17","S","s",1,1,0,589,9
"282",4448050,"Mono","Contrast Sensitivity With Height","18","R","r",1,1,0,473,8
"283",4448050,"Mono","Contrast Sensitivity With Height","19","O","o",1,1,0,418,7
"284",4448050,"Mono","Contrast Sensitivity With Height","20","U","u",1,1,0,442,6
"285",4448050,"Mono","Contrast Sensitivity With Height","21","N","n",1,1,0,420,5
"286",4448050,"Mono","Contrast Sensitivity With Height","22","V","v",1,1,0,461,4
"287",4448050,"Mono","Contrast Sensitivity With Height","23","K","k",1,1,0,992,3
"288",4448050,"Mono","Contrast Sensitivity With Height","24","D","d",1,1,0,883,2
"289",4448050,"Mono","Contrast Sensitivity With Height","25","S","q",1,0,1,1010,1
"290",4448050,"Mono","Contrast Sensitivity With Height","26","H","h",1,1,0,588,3
"291",4448050,"Mono","Contrast Sensitivity With Height","27","N","n",1,1,0,514,2
"292",4448050,"Mono","Contrast Sensitivity With Height","28","V","q",1,0,1,956,1
"293",4448050,"Mono","Contrast Sensitivity With Height","29","U","u",1,1,0,426,3
"294",4448050,"Mono","Contrast Sensitivity With Height","30","R","n",1,0,1,518,2
"295",4448050,"Mono","Contrast Sensitivity With Height","31","O","o",1,1,0,395,4
"296",4448050,"Mono","Contrast Sensitivity With Height","32","C","q",1,0,1,627,3
"297",4448050,"Mono","Contrast Sensitivity With Height","33","Z","z",1,1,0,541,5
"298",4448050,"Mono","Contrast Sensitivity With Height","34","N","n",1,1,0,385,4
"299",4448050,"Mono","Contrast Sensitivity With Height","35","R","r",1,1,0,538,3
"300",4448050,"Mono","Contrast Sensitivity With Height","36","K","k",1,1,0,892,2
"301",4448050,"Mono","Contrast Sensitivity With Height","37","C","g",1,0,1,600,1
"302",4448050,"Mono","Contrast Sensitivity With Height","38","D","d",1,1,0,435,3
"303",4448050,"Mono","Contrast Sensitivity With Height","39","O","q",1,0,1,562,2
"304",4448050,"Mono","Contrast Sensitivity With Height","40","H","h",1,1,0,381,4
"305",4448050,"Mono","Contrast Sensitivity With Height","41","U","u",1,1,0,384,3
"306",4448050,"Mono","Contrast Sensitivity With Height","42","S","s",1,1,0,567,2
"307",4448050,"Mono","Contrast Sensitivity With Height","43","Z","m",1,0,1,924,1
"308",4448050,"Mono","Contrast Sensitivity With Height","44","V","v",1,1,0,618,3
"309",4449717,"Mono","Contrast Sensitivity With Height","1","Z","z",1,1,0,530,25
"310",4449717,"Mono","Contrast Sensitivity With Height","2","V","v",1,1,0,389,24
"311",4449717,"Mono","Contrast Sensitivity With Height","3","K","k",1,1,0,566,23
"312",4449717,"Mono","Contrast Sensitivity With Height","4","C","c",1,1,0,449,22
"313",4449717,"Mono","Contrast Sensitivity With Height","5","D","d",1,1,0,436,21
"314",4449717,"Mono","Contrast Sensitivity With Height","6","H","h",1,1,0,409,20
"315",4449717,"Mono","Contrast Sensitivity With Height","7","N","n",1,1,0,366,19
"316",4449717,"Mono","Contrast Sensitivity With Height","8","O","o",1,1,0,290,18
"317",4449717,"Mono","Contrast Sensitivity With Height","9","U","u",1,1,0,380,17
"318",4449717,"Mono","Contrast Sensitivity With Height","10","R","r",1,1,0,923,16
"319",4449717,"Mono","Contrast Sensitivity With Height","11","S","s",1,1,0,479,15
"320",4449717,"Mono","Contrast Sensitivity With Height","12","K","k",1,1,0,483,14
"321",4449717,"Mono","Contrast Sensitivity With Height","13","U","u",1,1,0,489,13
"322",4449717,"Mono","Contrast Sensitivity With Height","14","D","u",1,0,1,532,12
"323",4449717,"Mono","Contrast Sensitivity With Height","15","Z","x",1,0,1,508,14
"324",4449717,"Mono","Contrast Sensitivity With Height","16","C","c",1,1,0,897,16
"325",4449717,"Mono","Contrast Sensitivity With Height","17","N","h",1,0,1,378,15
"326",4449717,"Mono","Contrast Sensitivity With Height","18","S","s",1,1,0,914,17
"327",4449717,"Mono","Contrast Sensitivity With Height","19","H","h",1,1,0,316,16
"328",4449717,"Mono","Contrast Sensitivity With Height","20","O","o",1,1,0,104,15
"329",4449717,"Mono","Contrast Sensitivity With Height","21","R","r",1,1,0,470,14
"330",4449717,"Mono","Contrast Sensitivity With Height","22","V","v",1,1,0,355,13
"331",4449717,"Mono","Contrast Sensitivity With Height","23","Z","x",1,0,1,452,12
"332",4449717,"Mono","Contrast Sensitivity With Height","24","N","n",1,1,0,331,14
"333",4449717,"Mono","Contrast Sensitivity With Height","25","H","h",1,1,0,386,13
"334",4449717,"Mono","Contrast Sensitivity With Height","26","O","o",1,1,0,927,12
"335",4449717,"Mono","Contrast Sensitivity With Height","27","K","k",1,1,0,267,11
"336",4449717,"Mono","Contrast Sensitivity With Height","28","V","v",1,1,0,412,10
"337",4449717,"Mono","Contrast Sensitivity With Height","29","R","r",1,1,0,577,9
"338",4449717,"Mono","Contrast Sensitivity With Height","30","D","o",1,0,1,236,8
"339",4449717,"Mono","Contrast Sensitivity With Height","31","U","u",1,1,0,373,10
"340",4449717,"Mono","Contrast Sensitivity With Height","32","S","b",1,0,1,334,9
"341",4449717,"Mono","Contrast Sensitivity With Height","33","C","c",1,1,0,403,11
"342",4449717,"Mono","Contrast Sensitivity With Height","34","H","h",1,1,0,372,10
"343",4449717,"Mono","Contrast Sensitivity With Height","35","K","k",1,1,0,326,9
"344",4449717,"Mono","Contrast Sensitivity With Height","36","C","c",1,1,0,285,8
"345",4449717,"Mono","Contrast Sensitivity With Height","37","N","h",1,0,1,335,7
"346",4449717,"Mono","Contrast Sensitivity With Height","38","U","u",1,1,0,360,9
"347",4449717,"Mono","Contrast Sensitivity With Height","39","V","v",1,1,0,328,8
"348",4449717,"Mono","Contrast Sensitivity With Height","40","O","o",1,1,0,284,7
"349",4449717,"Mono","Contrast Sensitivity With Height","41","Z","z",1,1,0,510,6
"350",4449717,"Mono","Contrast Sensitivity With Height","42","S","s",1,1,0,602,5
"351",4449717,"Mono","Contrast Sensitivity With Height","43","D","d",1,1,0,411,4
"352",4449717,"Mono","Contrast Sensitivity With Height","44","R","p",1,0,1,891,3
"353",4454520,"Mono","Contrast Sensitivity With Height","1","C","c",1,1,0,396,25
"354",4454520,"Mono","Contrast Sensitivity With Height","2","U","u",1,1,0,107,24
"355",4454520,"Mono","Contrast Sensitivity With Height","3","Z","z",1,1,0,230,23
"356",4454520,"Mono","Contrast Sensitivity With Height","4","H","h",1,1,0,63,22
"357",4454520,"Mono","Contrast Sensitivity With Height","5","V","v",1,1,0,108,21
"358",4454520,"Mono","Contrast Sensitivity With Height","6","N","n",1,1,0,28,20
"359",4454520,"Mono","Contrast Sensitivity With Height","7","K","k",1,1,0,90,19
"360",4454520,"Mono","Contrast Sensitivity With Height","8","R","r",1,1,0,23,18
"361",4454520,"Mono","Contrast Sensitivity With Height","9","O","o",1,1,0,72,17
"362",4454520,"Mono","Contrast Sensitivity With Height","10","S","s",1,1,0,65,16
"363",4454520,"Mono","Contrast Sensitivity With Height","11","D","d",1,1,0,24,15
"364",4454520,"Mono","Contrast Sensitivity With Height","12","S","s",1,1,0,13,14
"365",4454520,"Mono","Contrast Sensitivity With Height","13","Z","z",1,1,0,102,13
"366",4454520,"Mono","Contrast Sensitivity With Height","14","D","d",1,1,0,31,12
"367",4454520,"Mono","Contrast Sensitivity With Height","15","K","k",1,1,0,64,11
"368",4454520,"Mono","Contrast Sensitivity With Height","16","C","c",1,1,0,35,10
"369",4454520,"Mono","Contrast Sensitivity With Height","17","N","n",1,1,0,32,9
"370",4454520,"Mono","Contrast Sensitivity With Height","18","H","h",1,1,0,95,8
"371",4454520,"Mono","Contrast Sensitivity With Height","19","O","o",1,1,0,97,7
"372",4454520,"Mono","Contrast Sensitivity With Height","20","U","u",1,1,0,33,6
"373",4454520,"Mono","Contrast Sensitivity With Height","21","R","r",1,1,0,269,5
"374",4454520,"Mono","Contrast Sensitivity With Height","22","V","v",1,1,0,300,4
"375",4454520,"Mono","Contrast Sensitivity With Height","23","S","s",1,1,0,459,3
"376",4454520,"Mono","Contrast Sensitivity With Height","24","N","n",1,1,0,338,2
"377",4454520,"Mono","Contrast Sensitivity With Height","25","K","a",1,0,1,896,1
"378",4454520,"Mono","Contrast Sensitivity With Height","26","U","u",1,1,0,274,3
"379",4454520,"Mono","Contrast Sensitivity With Height","27","R","r",1,1,0,912,2
"380",4454520,"Mono","Contrast Sensitivity With Height","28","Z","s",1,0,1,936,1
"381",4454520,"Mono","Contrast Sensitivity With Height","29","C","c",1,1,0,491,3
"382",4454520,"Mono","Contrast Sensitivity With Height","30","V","v",1,1,0,519,2
"383",4454520,"Mono","Contrast Sensitivity With Height","31","H","c",1,0,1,910,1
"384",4454520,"Mono","Contrast Sensitivity With Height","32","O","o",1,1,0,444,3
"385",4454520,"Mono","Contrast Sensitivity With Height","33","D","d",1,1,0,973,2
"386",4454520,"Mono","Contrast Sensitivity With Height","34","R","s",1,0,1,100,1
"387",4454520,"Mono","Contrast Sensitivity With Height","35","Z","x",1,0,1,292,3
"388",4454520,"Mono","Contrast Sensitivity With Height","36","C","c",1,1,0,240,5
"389",4454520,"Mono","Contrast Sensitivity With Height","37","H","h",1,1,0,278,4
"390",4454520,"Mono","Contrast Sensitivity With Height","38","S","s",1,1,0,344,3
"391",4454520,"Mono","Contrast Sensitivity With Height","39","O","o",1,1,0,406,2
"392",4454520,"Mono","Contrast Sensitivity With Height","40","N","k",1,0,1,943,1
"393",4454520,"Mono","Contrast Sensitivity With Height","41","V","v",1,1,0,103,3
"394",4454520,"Mono","Contrast Sensitivity With Height","42","D","d",1,1,0,587,2
"395",4454520,"Mono","Contrast Sensitivity With Height","43","U","s",1,0,1,30,1
"396",4454520,"Mono","Contrast Sensitivity With Height","44","K","k",1,1,0,390,3
"397",4494914,"Mono","Contrast Sensitivity With Height","1","C","c",1,1,0,558,25
"398",4494914,"Mono","Contrast Sensitivity With Height","2","R","r",1,1,0,105,24
"399",4494914,"Mono","Contrast Sensitivity With Height","3","Z","z",1,1,0,106,23
"400",4494914,"Mono","Contrast Sensitivity With Height","4","V","v",1,1,0,535,22
"401",4494914,"Mono","Contrast Sensitivity With Height","5","H","h",1,1,0,62,21
"402",4494914,"Mono","Contrast Sensitivity With Height","6","O","o",1,1,0,234,20
"403",4494914,"Mono","Contrast Sensitivity With Height","7","K","k",1,1,0,320,19
"404",4494914,"Mono","Contrast Sensitivity With Height","8","U","u",1,1,0,325,18
"405",4494914,"Mono","Contrast Sensitivity With Height","9","S","s",1,1,0,349,17
"406",4494914,"Mono","Contrast Sensitivity With Height","10","D","d",1,1,0,266,16
"407",4494914,"Mono","Contrast Sensitivity With Height","11","N","n",1,1,0,67,15
"408",4494914,"Mono","Contrast Sensitivity With Height","12","D","d",1,1,0,286,14
"409",4494914,"Mono","Contrast Sensitivity With Height","13","C","c",1,1,0,231,13
"410",4494914,"Mono","Contrast Sensitivity With Height","14","K","k",1,1,0,75,12
"411",4494914,"Mono","Contrast Sensitivity With Height","15","S","s",1,1,0,268,11
"412",4494914,"Mono","Contrast Sensitivity With Height","16","H","h",1,1,0,237,10
"413",4494914,"Mono","Contrast Sensitivity With Height","17","Z","z",1,1,0,457,9
"414",4494914,"Mono","Contrast Sensitivity With Height","18","R","r",1,1,0,501,8
"415",4494914,"Mono","Contrast Sensitivity With Height","19","O","o",1,1,0,329,7
"416",4494914,"Mono","Contrast Sensitivity With Height","20","N","n",1,1,0,362,6
"417",4494914,"Mono","Contrast Sensitivity With Height","21","U","s",1,0,1,521,5
"418",4494914,"Mono","Contrast Sensitivity With Height","22","V","v",1,1,0,359,7
"419",4494914,"Mono","Contrast Sensitivity With Height","23","U","u",1,1,0,299,6
"420",4494914,"Mono","Contrast Sensitivity With Height","24","K","n",1,0,1,371,5
"421",4494914,"Mono","Contrast Sensitivity With Height","25","C","c",1,1,0,323,7
"422",4494914,"Mono","Contrast Sensitivity With Height","26","Z","z",1,1,0,356,6
"423",4494914,"Mono","Contrast Sensitivity With Height","27","O","o",1,1,0,387,5
"424",4494914,"Mono","Contrast Sensitivity With Height","28","R","k",1,0,1,427,4
"425",4494914,"Mono","Contrast Sensitivity With Height","29","V","v",1,1,0,282,6
"426",4494914,"Mono","Contrast Sensitivity With Height","30","S","s",1,1,0,376,5
"427",4494914,"Mono","Contrast Sensitivity With Height","31","N","n",1,1,0,370,4
"428",4494914,"Mono","Contrast Sensitivity With Height","32","H","r",1,0,1,327,3
"429",4494914,"Mono","Contrast Sensitivity With Height","33","D","s",1,0,1,401,5
"430",4494914,"Mono","Contrast Sensitivity With Height","34","Z","z",1,1,0,337,7
"431",4494914,"Mono","Contrast Sensitivity With Height","35","R","r",1,1,0,443,6
"432",4494914,"Mono","Contrast Sensitivity With Height","36","K","k",1,1,0,287,5
"433",4494914,"Mono","Contrast Sensitivity With Height","37","U","n",1,0,1,421,4
"434",4494914,"Mono","Contrast Sensitivity With Height","38","C","c",1,1,0,279,6
"435",4494914,"Mono","Contrast Sensitivity With Height","39","N","n",1,1,0,321,5
"436",4494914,"Mono","Contrast Sensitivity With Height","40","D","c",1,0,1,414,4
"437",4494914,"Mono","Contrast Sensitivity With Height","41","S","s",1,1,0,354,6
"438",4494914,"Mono","Contrast Sensitivity With Height","42","V","r",1,0,1,505,5
"439",4494914,"Mono","Contrast Sensitivity With Height","43","H","h",1,1,0,343,7
"440",4494914,"Mono","Contrast Sensitivity With Height","44","O","o",1,1,0,77,6
"441",4452039,"Mono","Contrast Sensitivity With Height","1","D","d",1,1,0,885,25
"442",4452039,"Mono","Contrast Sensitivity With Height","2","U","u",1,1,0,544,24
"443",4452039,"Mono","Contrast Sensitivity With Height","3","S","s",1,1,0,539,23
"444",4452039,"Mono","Contrast Sensitivity With Height","4","K","k",1,1,0,481,22
"445",4452039,"Mono","Contrast Sensitivity With Height","5","Z","z",1,1,0,520,21
"446",4452039,"Mono","Contrast Sensitivity With Height","6","R","r",1,1,0,557,20
"447",4452039,"Mono","Contrast Sensitivity With Height","7","C","c",1,1,0,472,19
"448",4452039,"Mono","Contrast Sensitivity With Height","8","V","v",1,1,0,580,18
"449",4452039,"Mono","Contrast Sensitivity With Height","9","N","n",1,1,0,425,17
"450",4452039,"Mono","Contrast Sensitivity With Height","10","H","h",1,1,0,428,16
"451",4452039,"Mono","Contrast Sensitivity With Height","11","O","o",1,1,0,429,15
"452",4452039,"Mono","Contrast Sensitivity With Height","12","N","n",1,1,0,424,14
"453",4452039,"Mono","Contrast Sensitivity With Height","13","U","u",1,1,0,463,13
"454",4452039,"Mono","Contrast Sensitivity With Height","14","K","k",1,1,0,416,12
"455",4452039,"Mono","Contrast Sensitivity With Height","15","D","d",1,1,0,400,11
"456",4452039,"Mono","Contrast Sensitivity With Height","16","S","s",1,1,0,434,10
"457",4452039,"Mono","Contrast Sensitivity With Height","17","C","c",1,1,0,915,9
"458",4452039,"Mono","Contrast Sensitivity With Height","18","O","o",1,1,0,604,8
"459",4452039,"Mono","Contrast Sensitivity With Height","19","Z","z",1,1,0,446,7
"460",4452039,"Mono","Contrast Sensitivity With Height","20","H","h",1,1,0,582,6
"461",4452039,"Mono","Contrast Sensitivity With Height","21","V","v",1,1,0,615,5
"462",4452039,"Mono","Contrast Sensitivity With Height","22","R","r",1,1,0,7,4
"463",4452039,"Mono","Contrast Sensitivity With Height","23","Z","z",1,1,0,1005,3
"464",4452039,"Mono","Contrast Sensitivity With Height","24","U","x",1,0,1,974,2
"465",4452039,"Mono","Contrast Sensitivity With Height","25","C","c",1,1,0,513,4
"466",4452039,"Mono","Contrast Sensitivity With Height","26","H","n",1,0,1,902,3
"467",4452039,"Mono","Contrast Sensitivity With Height","27","V","v",1,1,0,613,5
"468",4452039,"Mono","Contrast Sensitivity With Height","28","R","r",1,1,0,556,4
"469",4452039,"Mono","Contrast Sensitivity With Height","29","D","o",1,0,1,913,3
"470",4452039,"Mono","Contrast Sensitivity With Height","30","K","k",1,1,0,561,5
"471",4452039,"Mono","Contrast Sensitivity With Height","31","S","s",1,1,0,529,4
"472",4452039,"Mono","Contrast Sensitivity With Height","32","N","n",1,1,0,485,3
"473",4452039,"Mono","Contrast Sensitivity With Height","33","O","o",1,1,0,903,2
"474",4452039,"Mono","Contrast Sensitivity With Height","34","K","x",1,0,1,612,1
"475",4452039,"Mono","Contrast Sensitivity With Height","35","V","v",1,1,0,947,3
"476",4452039,"Mono","Contrast Sensitivity With Height","36","O","o",1,1,0,606,2
"477",4452039,"Mono","Contrast Sensitivity With Height","37","D","x",1,0,1,586,1
"478",4452039,"Mono","Contrast Sensitivity With Height","38","U","n",1,0,1,523,3
"479",4452039,"Mono","Contrast Sensitivity With Height","39","N","n",1,1,0,909,5
"480",4452039,"Mono","Contrast Sensitivity With Height","40","H","h",1,1,0,911,4
"481",4452039,"Mono","Contrast Sensitivity With Height","41","Z","z",1,1,0,930,3
"482",4452039,"Mono","Contrast Sensitivity With Height","42","S","n",1,0,1,886,2
"483",4452039,"Mono","Contrast Sensitivity With Height","43","C","o",1,0,1,940,4
"484",4452039,"Mono","Contrast Sensitivity With Height","44","R","r",1,1,0,898,6
"485",4404605,"Mono","Contrast Sensitivity With Height","1","O","o",1,1,0,365,25
"486",4404605,"Mono","Contrast Sensitivity With Height","2","N","N",1,1,0,1006,24
"487",4404605,"Mono","Contrast Sensitivity With Height","3","V","N",1,0,1,70,23
"488",4404605,"Mono","Contrast Sensitivity With Height","4","R","H",1,0,1,548,25
"489",4404605,"Mono","Contrast Sensitivity With Height","5","U","U",1,1,0,623,27
"490",4404605,"Mono","Contrast Sensitivity With Height","6","S","S",1,1,0,352,26
"491",4404605,"Mono","Contrast Sensitivity With Height","7","K","K",1,1,0,361,25
"492",4404605,"Mono","Contrast Sensitivity With Height","8","C","N",1,0,1,357,24
"493",4404605,"Mono","Contrast Sensitivity With Height","9","H","N",1,0,1,512,26
"494",4404605,"Mono","Contrast Sensitivity With Height","10","Z","U",1,0,1,423,28
"495",4404605,"Mono","Contrast Sensitivity With Height","11","D","D",1,1,0,471,30
"496",4404605,"Mono","Contrast Sensitivity With Height","12","N","N",1,1,0,9,29
"497",4404605,"Mono","Contrast Sensitivity With Height","13","V","V",1,1,0,276,28
"498",4404605,"Mono","Contrast Sensitivity With Height","14","S","S",1,1,0,291,27
"499",4404605,"Mono","Contrast Sensitivity With Height","15","H","H",1,1,0,330,26
"500",4404605,"Mono","Contrast Sensitivity With Height","16","O","O",1,1,0,233,25
"501",4404605,"Mono","Contrast Sensitivity With Height","17","D","D",1,1,0,273,24
"502",4404605,"Mono","Contrast Sensitivity With Height","18","Z","Z",1,1,0,265,23
"503",4404605,"Mono","Contrast Sensitivity With Height","19","C","C",1,1,0,369,22
"504",4404605,"Mono","Contrast Sensitivity With Height","20","K","K#",1,0,1,350,21
"505",4404605,"Mono","Contrast Sensitivity With Height","21","R","R",1,1,0,468,23
"506",4404605,"Mono","Contrast Sensitivity With Height","22","U","U",1,1,0,239,22
"507",4404605,"Mono","Contrast Sensitivity With Height","23","Z","Z",1,1,0,394,21
"508",4404605,"Mono","Contrast Sensitivity With Height","24","S","S",1,1,0,296,20
"509",4404605,"Mono","Contrast Sensitivity With Height","25","R","R",1,1,0,288,19
"510",4404605,"Mono","Contrast Sensitivity With Height","26","U","U",1,1,0,383,18
"511",4404605,"Mono","Contrast Sensitivity With Height","27","D","D",1,1,0,315,17
"512",4404605,"Mono","Contrast Sensitivity With Height","28","C","C",1,1,0,281,16
"513",4404605,"Mono","Contrast Sensitivity With Height","29","H","H",1,1,0,76,15
"514",4404605,"Mono","Contrast Sensitivity With Height","30","V","V",1,1,0,89,14
"515",4404605,"Mono","Contrast Sensitivity With Height","31","O","O",1,1,0,375,13
"516",4404605,"Mono","Contrast Sensitivity With Height","32","N","N",1,1,0,363,12
"517",4404605,"Mono","Contrast Sensitivity With Height","33","K","K",1,1,0,348,11
"518",4404605,"Mono","Contrast Sensitivity With Height","34","R","R",1,1,0,317,10
"519",4404605,"Mono","Contrast Sensitivity With Height","35","K","K",1,1,0,419,9
"520",4404605,"Mono","Contrast Sensitivity With Height","36","D","D",1,1,0,294,8
"521",4404605,"Mono","Contrast Sensitivity With Height","37","C","C",1,1,0,74,7
"522",4404605,"Mono","Contrast Sensitivity With Height","38","O","o",1,1,0,353,6
"523",4404605,"Mono","Contrast Sensitivity With Height","39","H","H",1,1,0,109,5
"524",4404605,"Mono","Contrast Sensitivity With Height","40","N","N",1,1,0,238,4
"525",4404605,"Mono","Contrast Sensitivity With Height","41","Z","Z",1,1,0,324,3
"526",4404605,"Mono","Contrast Sensitivity With Height","42","U","U",1,1,0,295,2
"527",4404605,"Mono","Contrast Sensitivity With Height","43","V","V",1,1,0,410,1
"528",4404605,"Mono","Contrast Sensitivity With Height","44","S","S",1,1,0,477,1
"529",4336342,"Mono","Contrast Sensitivity With Height","1","K","k",1,1,0,948,25
"530",4336342,"Mono","Contrast Sensitivity With Height","2","H","h",1,1,0,364,24
"531",4336342,"Mono","Contrast Sensitivity With Height","3","U","u",1,1,0,333,23
"532",4336342,"Mono","Contrast Sensitivity With Height","4","S","s",1,1,0,374,22
"533",4336342,"Mono","Contrast Sensitivity With Height","5","R","r",1,1,0,398,21
"534",4336342,"Mono","Contrast Sensitivity With Height","6","C","c",1,1,0,351,20
"535",4336342,"Mono","Contrast Sensitivity With Height","7","N","n",1,1,0,66,19
"536",4336342,"Mono","Contrast Sensitivity With Height","8","O","o",1,1,0,270,18
"537",4336342,"Mono","Contrast Sensitivity With Height","9","D","d",1,1,0,277,17
"538",4336342,"Mono","Contrast Sensitivity With Height","10","V","v",1,1,0,397,16
"539",4336342,"Mono","Contrast Sensitivity With Height","11","Z","z",1,1,0,417,15
"540",4336342,"Mono","Contrast Sensitivity With Height","12","U","u",1,1,0,68,14
"541",4336342,"Mono","Contrast Sensitivity With Height","13","V","v",1,1,0,271,13
"542",4336342,"Mono","Contrast Sensitivity With Height","14","C","c",1,1,0,393,12
"543",4336342,"Mono","Contrast Sensitivity With Height","15","S","s",1,1,0,455,11
"544",4336342,"Mono","Contrast Sensitivity With Height","16","D","d",1,1,0,297,10
"545",4336342,"Mono","Contrast Sensitivity With Height","17","R","r",1,1,0,433,9
"546",4336342,"Mono","Contrast Sensitivity With Height","18","O","o",1,1,0,275,8
"547",4336342,"Mono","Contrast Sensitivity With Height","19","N","n",1,1,0,101,7
"548",4336342,"Mono","Contrast Sensitivity With Height","20","Z","z",1,1,0,382,6
"549",4336342,"Mono","Contrast Sensitivity With Height","21","K","k",1,1,0,235,5
"550",4336342,"Mono","Contrast Sensitivity With Height","22","H","h",1,1,0,332,4
"551",4336342,"Mono","Contrast Sensitivity With Height","23","V","v",1,1,0,440,3
"552",4336342,"Mono","Contrast Sensitivity With Height","24","D","o",1,0,1,545,2
"553",4336342,"Mono","Contrast Sensitivity With Height","25","N","n",1,1,0,283,4
"554",4336342,"Mono","Contrast Sensitivity With Height","26","O","o",1,1,0,319,3
"555",4336342,"Mono","Contrast Sensitivity With Height","27","Z","z",1,1,0,464,2
"556",4336342,"Mono","Contrast Sensitivity With Height","28","H","nothing ",1,0,1,78,1
"557",4336342,"Mono","Contrast Sensitivity With Height","29","K","k",1,1,0,293,3
"558",4336342,"Mono","Contrast Sensitivity With Height","30","U","u",1,1,0,545,2
"559",4336342,"Mono","Contrast Sensitivity With Height","31","S","s",1,1,0,907,1
"560",4336342,"Mono","Contrast Sensitivity With Height","32","C","c",1,1,0,899,1
"561",4336342,"Mono","Contrast Sensitivity With Height","33","R","r",1,1,0,904,1
"562",4336342,"Mono","Contrast Sensitivity With Height","34","Z","u",1,0,1,91,1
"563",4336342,"Mono","Contrast Sensitivity With Height","35","V","v",1,1,0,280,3
"564",4336342,"Mono","Contrast Sensitivity With Height","36","H","h",1,1,0,968,2
"565",4336342,"Mono","Contrast Sensitivity With Height","37","U"," nothing",1,0,1,487,1
"566",4336342,"Mono","Contrast Sensitivity With Height","38","D","d",1,1,0,451,3
"567",4336342,"Mono","Contrast Sensitivity With Height","39","K","k",1,1,0,900,2
"568",4336342,"Mono","Contrast Sensitivity With Height","40","N","n",1,1,0,941,1
"569",4336342,"Mono","Contrast Sensitivity With Height","41","R","r",1,1,0,617,1
"570",4336342,"Mono","Contrast Sensitivity With Height","42","C","g",1,0,1,976,1
"571",4336342,"Mono","Contrast Sensitivity With Height","43","O","o",1,1,0,639,3
"572",4336342,"Mono","Contrast Sensitivity With Height","44","S","s",1,1,0,598,2
"573",4384320,"Mono","Contrast Sensitivity With Height","1","K","k",1,1,0,5060.80000007153,25
"574",4384320,"Mono","Contrast Sensitivity With Height","2","C","c",1,1,0,3107.10000002384,24
"575",4384320,"Mono","Contrast Sensitivity With Height","3","O","o",1,1,0,2128.89999997616,23
"576",4384320,"Mono","Contrast Sensitivity With Height","4","V","v",1,1,0,1999.89999997616,22
"577",4384320,"Mono","Contrast Sensitivity With Height","5","S","s",1,1,0,1872.19999992847,21
"578",4384320,"Mono","Contrast Sensitivity With Height","6","D","d",1,1,0,2350.89999997616,20
"579",4384320,"Mono","Contrast Sensitivity With Height","7","N","n",1,1,0,1428.89999997616,19
"580",4384320,"Mono","Contrast Sensitivity With Height","8","Z","z",1,1,0,2021.79999995232,18
"581",4384320,"Mono","Contrast Sensitivity With Height","9","R","r",1,1,0,3144.5,17
"582",4384320,"Mono","Contrast Sensitivity With Height","10","H","h",1,1,0,1702.70000004768,16
"583",4384320,"Mono","Contrast Sensitivity With Height","11","U","u",1,1,0,1627.10000002384,15
"584",4384320,"Mono","Contrast Sensitivity With Height","12","D","d",1,1,0,2152.60000002384,14
"585",4384320,"Mono","Contrast Sensitivity With Height","13","C","c",1,1,0,1740.30000007153,13
"586",4384320,"Mono","Contrast Sensitivity With Height","14","R","r",1,1,0,1407.60000002384,12
"587",4384320,"Mono","Contrast Sensitivity With Height","15","O","o",1,1,0,1515.20000004768,11
"588",4384320,"Mono","Contrast Sensitivity With Height","16","U","u",1,1,0,1358.89999997616,10
"589",4384320,"Mono","Contrast Sensitivity With Height","17","Z","z",1,1,0,1626.89999997616,9
"590",4384320,"Mono","Contrast Sensitivity With Height","18","H","h",1,1,0,1446.70000004768,8
"591",4384320,"Mono","Contrast Sensitivity With Height","19","V","v",1,1,0,1451.89999997616,7
"592",4384320,"Mono","Contrast Sensitivity With Height","20","K","k",1,1,0,1372.60000002384,6
"593",4384320,"Mono","Contrast Sensitivity With Height","21","N","n",1,1,0,1372.29999995232,5
"594",4384320,"Mono","Contrast Sensitivity With Height","22","S","s",1,1,0,1548.39999997616,4
"595",4384320,"Mono","Contrast Sensitivity With Height","23","Z","z",1,1,0,6074.10000002384,3
"596",4384320,"Mono","Contrast Sensitivity With Height","24","O","o",1,1,0,3849.70000004768,2
"597",4384320,"Mono","Contrast Sensitivity With Height","25","K","a",1,0,1,32472.2000000477,1
"598",4384320,"Mono","Contrast Sensitivity With Height","26","V","v",1,1,0,2526.10000002384,3
"599",4384320,"Mono","Contrast Sensitivity With Height","27","R","r",1,1,0,2915.20000004768,2
"600",4384320,"Mono","Contrast Sensitivity With Height","28","C","c",1,1,0,5696.39999997616,1
"601",4384320,"Mono","Contrast Sensitivity With Height","29","H","a",1,0,1,16941.2000000477,1
"602",4384320,"Mono","Contrast Sensitivity With Height","30","N","n",1,1,0,2529.70000004768,3
"603",4384320,"Mono","Contrast Sensitivity With Height","31","U","u",1,1,0,1980.70000004768,2
"604",4384320,"Mono","Contrast Sensitivity With Height","32","D","o",1,0,1,4187.5,1
"605",4384320,"Mono","Contrast Sensitivity With Height","33","S","s",1,1,0,2153.10000002384,3
"606",4384320,"Mono","Contrast Sensitivity With Height","34","Z","z",1,1,0,2759.89999997616,2
"607",4384320,"Mono","Contrast Sensitivity With Height","35","U","a",1,0,1,6004.70000004768,1
"608",4384320,"Mono","Contrast Sensitivity With Height","36","H","h",1,1,0,2194.30000007153,3
"609",4384320,"Mono","Contrast Sensitivity With Height","37","S","s",1,1,0,2724.40000009537,2
"610",4384320,"Mono","Contrast Sensitivity With Height","38","N","n",1,1,0,3351.39999997616,1
"611",4384320,"Mono","Contrast Sensitivity With Height","39","O","u",1,0,1,2581.80000007153,1
"612",4384320,"Mono","Contrast Sensitivity With Height","40","V","vv",1,0,1,2611.69999992847,3
"613",4384320,"Mono","Contrast Sensitivity With Height","41","C","c",1,1,0,3536.39999997616,5
"614",4384320,"Mono","Contrast Sensitivity With Height","42","K","k",1,1,0,1851.70000004768,4
"615",4384320,"Mono","Contrast Sensitivity With Height","43","D","d",1,1,0,2406.60000002384,3
"616",4384320,"Mono","Contrast Sensitivity With Height","44","R","r",1,1,0,2796.10000002384,2
"617",4424285,"Mono","Contrast Sensitivity With Height","1","D","d",1,1,0,4777.09999999404,25
"618",4424285,"Mono","Contrast Sensitivity With Height","2","S","s",1,1,0,1728,24
"619",4424285,"Mono","Contrast Sensitivity With Height","3","N","n",1,1,0,1552.89999997616,23
"620",4424285,"Mono","Contrast Sensitivity With Height","4","C","c",1,1,0,1727.30000001192,22
"621",4424285,"Mono","Contrast Sensitivity With Height","5","K","k",1,1,0,1312.70000001788,21
"622",4424285,"Mono","Contrast Sensitivity With Height","6","O","o",1,1,0,1483.59999999404,20
"623",4424285,"Mono","Contrast Sensitivity With Height","7","U","u",1,1,0,1271.40000000596,19
"624",4424285,"Mono","Contrast Sensitivity With Height","8","Z","z",1,1,0,1652,18
"625",4424285,"Mono","Contrast Sensitivity With Height","9","R","r",1,1,0,1517.5,17
"626",4424285,"Mono","Contrast Sensitivity With Height","10","H","h",1,1,0,1593.59999999404,16
"627",4424285,"Mono","Contrast Sensitivity With Height","11","V","v",1,1,0,2213.80000001192,15
"628",4424285,"Mono","Contrast Sensitivity With Height","12","K","k",1,1,0,2066.90000000596,14
"629",4424285,"Mono","Contrast Sensitivity With Height","13","O","o",1,1,0,2053.70000001788,13
"630",4424285,"Mono","Contrast Sensitivity With Height","14","N","n",1,1,0,1745.90000000596,12
"631",4424285,"Mono","Contrast Sensitivity With Height","15","Z","z",1,1,0,2055.09999999404,11
"632",4424285,"Mono","Contrast Sensitivity With Height","16","U","u",1,1,0,1477.09999999404,10
"633",4424285,"Mono","Contrast Sensitivity With Height","17","V","v",1,1,0,1401.80000001192,9
"634",4424285,"Mono","Contrast Sensitivity With Height","18","D","d",1,1,0,1463,8
"635",4424285,"Mono","Contrast Sensitivity With Height","19","H","h",1,1,0,3715,7
"636",4424285,"Mono","Contrast Sensitivity With Height","20","R","r",1,1,0,2382.90000000596,6
"637",4424285,"Mono","Contrast Sensitivity With Height","21","S","s",1,1,0,4634.10000002384,5
"638",4424285,"Mono","Contrast Sensitivity With Height","22","C","o",1,0,1,1903.90000000596,4
"639",4424285,"Mono","Contrast Sensitivity With Height","23","H","h",1,1,0,2249,6
"640",4424285,"Mono","Contrast Sensitivity With Height","24","C","o",1,0,1,1998.20000001788,5
"641",4424285,"Mono","Contrast Sensitivity With Height","25","D","d",1,1,0,2198.39999997616,7
"642",4424285,"Mono","Contrast Sensitivity With Height","26","Z","z",1,1,0,2871,6
"643",4424285,"Mono","Contrast Sensitivity With Height","27","V","",1,0,1,3095.69999998808,5
"644",4424285,"Mono","Contrast Sensitivity With Height","28","O","o",1,1,0,2536.70000001788,7
"645",4424285,"Mono","Contrast Sensitivity With Height","29","R","r",1,1,0,2495.19999998808,6
"646",4424285,"Mono","Contrast Sensitivity With Height","30","N","n",1,1,0,1645.29999998212,5
"647",4424285,"Mono","Contrast Sensitivity With Height","31","U","u",1,1,0,2422.5,4
"648",4424285,"Mono","Contrast Sensitivity With Height","32","K","k",1,1,0,3981.79999998212,3
"649",4424285,"Mono","Contrast Sensitivity With Height","33","S","",1,0,1,5377.29999998212,2
"650",4424285,"Mono","Contrast Sensitivity With Height","34","R","z",1,0,1,4135.40000000596,4
"651",4424285,"Mono","Contrast Sensitivity With Height","35","O","o",1,1,0,1476.90000000596,6
"652",4424285,"Mono","Contrast Sensitivity With Height","36","S","",1,0,1,2837.29999998212,5
"653",4424285,"Mono","Contrast Sensitivity With Height","37","D","d",1,1,0,2117.60000002384,7
"654",4424285,"Mono","Contrast Sensitivity With Height","38","V","v",1,1,0,1483.19999998808,6
"655",4424285,"Mono","Contrast Sensitivity With Height","39","C","o",1,0,1,2163.90000000596,5
"656",4424285,"Mono","Contrast Sensitivity With Height","40","H","j",1,0,1,2032,7
"657",4424285,"Mono","Contrast Sensitivity With Height","41","U","u",1,1,0,1524.69999998808,9
"658",4424285,"Mono","Contrast Sensitivity With Height","42","N","n",1,1,0,1281.10000002384,8
"659",4424285,"Mono","Contrast Sensitivity With Height","43","K","k",1,1,0,1356.59999999404,7
"660",4424285,"Mono","Contrast Sensitivity With Height","44","Z","z",1,1,0,1450.59999999404,6
"661",4495599,"Mono","Contrast Sensitivity With Height","1","V","v",1,1,0,7777.5,25
"662",4495599,"Mono","Contrast Sensitivity With Height","2","N","n",1,1,0,2515.30000001192,24
"663",4495599,"Mono","Contrast Sensitivity With Height","3","Z","z",1,1,0,5827.09999999404,23
"664",4495599,"Mono","Contrast Sensitivity With Height","4","U","u",1,1,0,3004.29999999702,22
"665",4495599,"Mono","Contrast Sensitivity With Height","5","R","r",1,1,0,1861.5,21
"666",4495599,"Mono","Contrast Sensitivity With Height","6","D","d",1,1,0,2158.79999999702,20
"667",4495599,"Mono","Contrast Sensitivity With Height","7","K","k",1,1,0,2182.10000000894,19
"668",4495599,"Mono","Contrast Sensitivity With Height","8","S","s",1,1,0,1966.10000000894,18
"669",4495599,"Mono","Contrast Sensitivity With Height","9","C","c",1,1,0,3889.10000000894,17
"670",4495599,"Mono","Contrast Sensitivity With Height","10","H","h",1,1,0,1815.79999999702,16
"671",4495599,"Mono","Contrast Sensitivity With Height","11","O","o",1,1,0,2578.5,15
"672",4495599,"Mono","Contrast Sensitivity With Height","12","S","s",1,1,0,4548.39999999106,14
"673",4495599,"Mono","Contrast Sensitivity With Height","13","C","c",1,1,0,2555.70000000298,13
"674",4495599,"Mono","Contrast Sensitivity With Height","14","H","h",1,1,0,2105.79999999702,12
"675",4495599,"Mono","Contrast Sensitivity With Height","15","N","n",1,1,0,1736.89999999106,11
"676",4495599,"Mono","Contrast Sensitivity With Height","16","U","u",1,1,0,2877.39999999106,10
"677",4495599,"Mono","Contrast Sensitivity With Height","17","O","o",1,1,0,2524.20000000298,9
"678",4495599,"Mono","Contrast Sensitivity With Height","18","K","k",1,1,0,2456.70000000298,8
"679",4495599,"Mono","Contrast Sensitivity With Height","19","D","d",1,1,0,3062.90000000596,7
"680",4495599,"Mono","Contrast Sensitivity With Height","20","V","v",1,1,0,8999.79999999702,6
"681",4495599,"Mono","Contrast Sensitivity With Height","21","R","r",1,1,0,2641.09999999404,5
"682",4495599,"Mono","Contrast Sensitivity With Height","22","Z","z",1,1,0,4379.79999999702,4
"683",4495599,"Mono","Contrast Sensitivity With Height","23","O","o",1,1,0,7532.39999999106,3
"684",4495599,"Mono","Contrast Sensitivity With Height","24","U","s",1,0,1,5572.90000000596,2
"685",4495599,"Mono","Contrast Sensitivity With Height","25","Z","z",1,1,0,4267.69999998808,4
"686",4495599,"Mono","Contrast Sensitivity With Height","26","N","n",1,1,0,2857.79999999702,3
"687",4495599,"Mono","Contrast Sensitivity With Height","27","C","o",1,0,1,2596.29999999702,2
"688",4495599,"Mono","Contrast Sensitivity With Height","28","D","o",1,0,1,4807.70000000298,4
"689",4495599,"Mono","Contrast Sensitivity With Height","29","K","k",1,1,0,5353.20000000298,6
"690",4495599,"Mono","Contrast Sensitivity With Height","30","R","r",1,1,0,2279.40000000596,5
"691",4495599,"Mono","Contrast Sensitivity With Height","31","S","s",1,1,0,6475.40000000596,4
"692",4495599,"Mono","Contrast Sensitivity With Height","32","H","h",1,1,0,5567.29999999702,3
"693",4495599,"Mono","Contrast Sensitivity With Height","33","V","z",1,0,1,3724.70000000298,2
"694",4495599,"Mono","Contrast Sensitivity With Height","34","N","g",1,0,1,2130.20000000298,4
"695",4495599,"Mono","Contrast Sensitivity With Height","35","U","u",1,1,0,2688.29999999702,6
"696",4495599,"Mono","Contrast Sensitivity With Height","36","S","s",1,1,0,2695.40000000596,5
"697",4495599,"Mono","Contrast Sensitivity With Height","37","R","r",1,1,0,2295.79999999702,4
"698",4495599,"Mono","Contrast Sensitivity With Height","38","K","k",1,1,0,2893.30000001192,3
"699",4495599,"Mono","Contrast Sensitivity With Height","39","D","a",1,0,1,1766.30000001192,2
"700",4495599,"Mono","Contrast Sensitivity With Height","40","Z","z",1,1,0,4433.69999998808,4
"701",4495599,"Mono","Contrast Sensitivity With Height","41","V","v",1,1,0,3109.60000000894,3
"702",4495599,"Mono","Contrast Sensitivity With Height","42","O","x",1,0,1,4377,2
"703",4495599,"Mono","Contrast Sensitivity With Height","43","H","h",1,1,0,3087,4
"704",4495599,"Mono","Contrast Sensitivity With Height","44","C","f",1,0,1,6135.70000000298,3
"705",4469128,"Mono","Contrast Sensitivity With Height","1","N","N",1,1,0,12695.4450000048,25
"706",4469128,"Mono","Contrast Sensitivity With Height","2","H","H",1,1,0,4467.56499999901,24
"707",4469128,"Mono","Contrast Sensitivity With Height","3","U","U",1,1,0,4285.39999999339,23
"708",4469128,"Mono","Contrast Sensitivity With Height","4","Z","Z",1,1,0,4633.99500001105,22
"709",4469128,"Mono","Contrast Sensitivity With Height","5","C","C",1,1,0,3544.87499999232,21
"710",4469128,"Mono","Contrast Sensitivity With Height","6","S","S",1,1,0,4069.71999999951,20
"711",4469128,"Mono","Contrast Sensitivity With Height","7","O","O",1,1,0,3935.53500001144,19
"712",4469128,"Mono","Contrast Sensitivity With Height","8","R","R",1,1,0,4530.65000000061,18
"713",4469128,"Mono","Contrast Sensitivity With Height","9","D","D",1,1,0,13604.0950000024,17
"714",4469128,"Mono","Contrast Sensitivity With Height","10","K","K",1,1,0,4115.49999999988,16
"715",4469128,"Mono","Contrast Sensitivity With Height","11","V","V",1,1,0,10800.5300000077,15
"716",4469128,"Mono","Contrast Sensitivity With Height","12","O","O",1,1,0,3364.8899999971,14
"717",4469128,"Mono","Contrast Sensitivity With Height","13","R","R",1,1,0,4905.56500000821,13
"718",4469128,"Mono","Contrast Sensitivity With Height","14","C","C",1,1,0,3302.84499999834,12
"719",4469128,"Mono","Contrast Sensitivity With Height","15","K","K",1,1,0,2935.72999999742,11
"720",4469128,"Mono","Contrast Sensitivity With Height","16","N","N",1,1,0,3097.88499999559,10
"721",4469128,"Mono","Contrast Sensitivity With Height","17","S","S",1,1,0,4609.43499999121,9
"722",4469128,"Mono","Contrast Sensitivity With Height","18","U","U",1,1,0,2929.88500000502,8
"723",4469128,"Mono","Contrast Sensitivity With Height","19","D","D",1,1,0,3419.82999999891,7
"724",4469128,"Mono","Contrast Sensitivity With Height","20","V","V",1,1,0,4268.89500000107,6
"725",4469128,"Mono","Contrast Sensitivity With Height","21","H","H",1,1,0,3700.29000000795,5
"726",4469128,"Mono","Contrast Sensitivity With Height","22","Z","Z",1,1,0,3390.76999999816,4
"727",4469128,"Mono","Contrast Sensitivity With Height","23","O","O",1,1,0,8511.49499999883,3
"728",4469128,"Mono","Contrast Sensitivity With Height","24","K","K",1,1,0,4489.54999999842,2
"729",4469128,"Mono","Contrast Sensitivity With Height","25","C","O",1,0,1,9304.50000001292,1
"730",4469128,"Mono","Contrast Sensitivity With Height","26","D","D",1,1,0,3690.1649999927,3
"731",4469128,"Mono","Contrast Sensitivity With Height","27","S","S",1,1,0,79702.5649999996,2
"732",4469128,"Mono","Contrast Sensitivity With Height","28","U","O",1,0,1,7269.78999999119,1
"733",4469128,"Mono","Contrast Sensitivity With Height","29","V","V",1,1,0,2979.36499999196,3
"734",4469128,"Mono","Contrast Sensitivity With Height","30","R","R",1,1,0,4214.02499999385,2
"735",4469128,"Mono","Contrast Sensitivity With Height","31","Z","O",1,0,1,6758.14499999979,1
"736",4469128,"Mono","Contrast Sensitivity With Height","32","N","N",1,1,0,3102.24999999627,3
"737",4469128,"Mono","Contrast Sensitivity With Height","33","H","H",1,1,0,3865.12999999104,2
"738",4469128,"Mono","Contrast Sensitivity With Height","34","C","O",1,0,1,5446.7650000006,1
"739",4469128,"Mono","Contrast Sensitivity With Height","35","U","U",1,1,0,5426.415000009,3
"740",4469128,"Mono","Contrast Sensitivity With Height","36","K","K",1,1,0,4281.36500000255,2
"741",4469128,"Mono","Contrast Sensitivity With Height","37","Z","O",1,0,1,6641.59500000824,1
"742",4469128,"Mono","Contrast Sensitivity With Height","38","O","O",1,1,0,2887.43500001146,3
"743",4469128,"Mono","Contrast Sensitivity With Height","39","N","N",1,1,0,4098.28999999445,2
"744",4469128,"Mono","Contrast Sensitivity With Height","40","R","O",1,0,1,7311.64499999431,1
"745",4469128,"Mono","Contrast Sensitivity With Height","41","H","H",1,1,0,3676.17500000051,3
"746",4469128,"Mono","Contrast Sensitivity With Height","42","S","S",1,1,0,4139.6950000053,2
"747",4469128,"Mono","Contrast Sensitivity With Height","43","V","O",1,0,1,8464.44000001065,1
"748",4469128,"Mono","Contrast Sensitivity With Height","44","D","D",1,1,0,3874.25500000245,3
"749",4339358,"Mono","Contrast Sensitivity With Height","1","K","k",1,1,0,12626.3000000119,25
"750",4339358,"Mono","Contrast Sensitivity With Height","2","Z","z",1,1,0,4873.10000002384,24
"751",4339358,"Mono","Contrast Sensitivity With Height","3","U","u",1,1,0,3080.39999997616,23
"752",4339358,"Mono","Contrast Sensitivity With Height","4","S","s",1,1,0,4349,22
"753",4339358,"Mono","Contrast Sensitivity With Height","5","V","v",1,1,0,3868.80000001192,21
"754",4339358,"Mono","Contrast Sensitivity With Height","6","C","c",1,1,0,10199.8999999762,20
"755",4339358,"Mono","Contrast Sensitivity With Height","7","N","n",1,1,0,3239.10000002384,19
"756",4339358,"Mono","Contrast Sensitivity With Height","8","D","d",1,1,0,2156.40000003576,18
"757",4339358,"Mono","Contrast Sensitivity With Height","9","R","R",1,1,0,5444.19999998808,17
"758",4339358,"Mono","Contrast Sensitivity With Height","10","O","o",1,1,0,3318.70000004768,16
"759",4339358,"Mono","Contrast Sensitivity With Height","11","H","H",1,1,0,1981.89999997616,15
"760",4339358,"Mono","Contrast Sensitivity With Height","12","R","R",1,1,0,1788.10000002384,14
"761",4339358,"Mono","Contrast Sensitivity With Height","13","Z","Z",1,1,0,1929.30000001192,13
"762",4339358,"Mono","Contrast Sensitivity With Height","14","H","H",1,1,0,1981,12
"763",4339358,"Mono","Contrast Sensitivity With Height","15","O","O",1,1,0,2048,11
"764",4339358,"Mono","Contrast Sensitivity With Height","16","V","V",1,1,0,1542.20000004768,10
"765",4339358,"Mono","Contrast Sensitivity With Height","17","D","D",1,1,0,2162.5,9
"766",4339358,"Mono","Contrast Sensitivity With Height","18","C","C",1,1,0,3299.5,8
"767",4339358,"Mono","Contrast Sensitivity With Height","19","U","U",1,1,0,2669.30000001192,7
"768",4339358,"Mono","Contrast Sensitivity With Height","20","K","K",1,1,0,3783,6
"769",4339358,"Mono","Contrast Sensitivity With Height","21","N","N",1,1,0,3156.80000001192,5
"770",4339358,"Mono","Contrast Sensitivity With Height","22","S","S",1,1,0,2825.10000002384,4
"771",4339358,"Mono","Contrast Sensitivity With Height","23","H","H",1,1,0,7214.69999998808,3
"772",4339358,"Mono","Contrast Sensitivity With Height","24","C","c",1,1,0,4426.70000004768,2
"773",4339358,"Mono","Contrast Sensitivity With Height","25","O","d",1,0,1,6945.89999997616,1
"774",4339358,"Mono","Contrast Sensitivity With Height","26","D","d",1,1,0,3991.69999998808,3
"775",4339358,"Mono","Contrast Sensitivity With Height","27","S","s",1,1,0,3163.80000001192,2
"776",4339358,"Mono","Contrast Sensitivity With Height","28","Z","f",1,0,1,8262.80000001192,1
"777",4339358,"Mono","Contrast Sensitivity With Height","29","V","v",1,1,0,3660.40000003576,3
"778",4339358,"Mono","Contrast Sensitivity With Height","30","K","k",1,1,0,4217.19999998808,2
"779",4339358,"Mono","Contrast Sensitivity With Height","31","U","f",1,0,1,6051.39999997616,1
"780",4339358,"Mono","Contrast Sensitivity With Height","32","N","n",1,1,0,4401.5,3
"781",4339358,"Mono","Contrast Sensitivity With Height","33","R","r",1,1,0,3131.5,2
"782",4339358,"Mono","Contrast Sensitivity With Height","34","Z","v",1,0,1,5270.09999996424,1
"783",4339358,"Mono","Contrast Sensitivity With Height","35","U","u",1,1,0,2712.5,3
"784",4339358,"Mono","Contrast Sensitivity With Height","36","O","o",1,1,0,3585.5,2
"785",4339358,"Mono","Contrast Sensitivity With Height","37","R","d",1,0,1,4861.10000002384,1
"786",4339358,"Mono","Contrast Sensitivity With Height","38","D","D",1,1,0,3404,3
"787",4339358,"Mono","Contrast Sensitivity With Height","39","S","S",1,1,0,4458.40000003576,2
"788",4339358,"Mono","Contrast Sensitivity With Height","40","N","f",1,0,1,4530.30000001192,1
"789",4339358,"Mono","Contrast Sensitivity With Height","41","H","H",1,1,0,6493.39999997616,3
"790",4339358,"Mono","Contrast Sensitivity With Height","42","V","V",1,1,0,2511.30000001192,2
"791",4339358,"Mono","Contrast Sensitivity With Height","43","C","s",1,0,1,6994.30000001192,1
"792",4339358,"Mono","Contrast Sensitivity With Height","44","K","K",1,1,0,4395.10000002384,3
"793",4334401,"Mono","Contrast Sensitivity With Height","1","S","S",1,1,0,10639.2000002861,25
"794",4334401,"Mono","Contrast Sensitivity With Height","2","C","C",1,1,0,4092.7999997139,24
"795",4334401,"Mono","Contrast Sensitivity With Height","3","D","D",1,1,0,4025.19999980927,23
"796",4334401,"Mono","Contrast Sensitivity With Height","4","U","U",1,1,0,3728.59999990463,22
"797",4334401,"Mono","Contrast Sensitivity With Height","5","O","O",1,1,0,4763.59999990463,21
"798",4334401,"Mono","Contrast Sensitivity With Height","6","Z","Z",1,1,0,2655.59999990463,20
"799",4334401,"Mono","Contrast Sensitivity With Height","7","H","H",1,1,0,2909.2999997139,19
"800",4334401,"Mono","Contrast Sensitivity With Height","8","K","K",1,1,0,2595.39999961853,18
"801",4334401,"Mono","Contrast Sensitivity With Height","9","R","R",1,1,0,3217.89999961853,17
"802",4334401,"Mono","Contrast Sensitivity With Height","10","N","N",1,1,0,2622.90000009537,16
"803",4334401,"Mono","Contrast Sensitivity With Height","11","V","V",1,1,0,2580.90000009537,15
"804",4334401,"Mono","Contrast Sensitivity With Height","12","S","S",1,1,0,3187,14
"805",4334401,"Mono","Contrast Sensitivity With Height","13","V","V",1,1,0,2475.59999990463,13
"806",4334401,"Mono","Contrast Sensitivity With Height","14","H","H",1,1,0,2629.2000002861,12
"807",4334401,"Mono","Contrast Sensitivity With Height","15","R","R",1,1,0,2745.40000009537,11
"808",4334401,"Mono","Contrast Sensitivity With Height","16","K","K",1,1,0,2839,10
"809",4334401,"Mono","Contrast Sensitivity With Height","17","Z","Z",1,1,0,3253.5,9
"810",4334401,"Mono","Contrast Sensitivity With Height","18","D","D",1,1,0,4233.2000002861,8
"811",4334401,"Mono","Contrast Sensitivity With Height","19","U","U",1,1,0,2601.59999990463,7
"812",4334401,"Mono","Contrast Sensitivity With Height","20","C","C",1,1,0,3128.90000009537,6
"813",4334401,"Mono","Contrast Sensitivity With Height","21","N","N",1,1,0,3414.2999997139,5
"814",4334401,"Mono","Contrast Sensitivity With Height","22","O","O",1,1,0,3639,4
"815",4334401,"Mono","Contrast Sensitivity With Height","23","Z","Z",1,1,0,4717.5,3
"816",4334401,"Mono","Contrast Sensitivity With Height","24","V","U",1,0,1,15544.4000000954,2
"817",4334401,"Mono","Contrast Sensitivity With Height","25","O","O",1,1,0,5768.09999990463,4
"818",4334401,"Mono","Contrast Sensitivity With Height","26","R","R",1,1,0,3327.5,3
"819",4334401,"Mono","Contrast Sensitivity With Height","27","D","D",1,1,0,3729.90000009537,2
"820",4334401,"Mono","Contrast Sensitivity With Height","28","C","K?",1,0,1,9615.69999980927,1
"821",4334401,"Mono","Contrast Sensitivity With Height","29","K","K",1,1,0,3521.5,3
"822",4334401,"Mono","Contrast Sensitivity With Height","30","U","U",1,1,0,4008.7999997139,2
"823",4334401,"Mono","Contrast Sensitivity With Height","31","N","D",1,0,1,7083.09999990463,1
"824",4334401,"Mono","Contrast Sensitivity With Height","32","S","S",1,1,0,4005,3
"825",4334401,"Mono","Contrast Sensitivity With Height","33","H","R?",1,0,1,6853,2
"826",4334401,"Mono","Contrast Sensitivity With Height","34","D","D",1,1,0,2796.30000019073,4
"827",4334401,"Mono","Contrast Sensitivity With Height","35","C","C",1,1,0,2670.90000009537,3
"828",4334401,"Mono","Contrast Sensitivity With Height","36","O","O?",1,0,1,9693.80000019073,2
"829",4334401,"Mono","Contrast Sensitivity With Height","37","H","H",1,1,0,2698,4
"830",4334401,"Mono","Contrast Sensitivity With Height","38","R","R",1,1,0,3418.90000009537,3
"831",4334401,"Mono","Contrast Sensitivity With Height","39","Z","Z?",1,0,1,4968.5,2
"832",4334401,"Mono","Contrast Sensitivity With Height","40","U","U",1,1,0,2599.2000002861,4
"833",4334401,"Mono","Contrast Sensitivity With Height","41","N","N",1,1,0,3236.30000019073,3
"834",4334401,"Mono","Contrast Sensitivity With Height","42","K","R",1,0,1,7186.09999990463,2
"835",4334401,"Mono","Contrast Sensitivity With Height","43","S","S",1,1,0,2430.59999990463,4
"836",4334401,"Mono","Contrast Sensitivity With Height","44","V","V",1,1,0,4865.40000009537,3
"837",4449574,"Mono","Contrast Sensitivity With Height","1","O","o",1,1,0,6316.40000009537,25
"838",4449574,"Mono","Contrast Sensitivity With Height","2","K","k",1,1,0,3004.90000009537,24
"839",4449574,"Mono","Contrast Sensitivity With Height","3","H","h",1,1,0,2472,23
"840",4449574,"Mono","Contrast Sensitivity With Height","4","D","d",1,1,0,2464.2999997139,22
"841",4449574,"Mono","Contrast Sensitivity With Height","5","V","v",1,1,0,2244.89999961853,21
"842",4449574,"Mono","Contrast Sensitivity With Height","6","C","c",1,1,0,4933.09999990463,20
"843",4449574,"Mono","Contrast Sensitivity With Height","7","Z","z",1,1,0,3599,19
"844",4449574,"Mono","Contrast Sensitivity With Height","8","U","u",1,1,0,2123.59999990463,18
"845",4449574,"Mono","Contrast Sensitivity With Height","9","N","n",1,1,0,3826,17
"846",4449574,"Mono","Contrast Sensitivity With Height","10","S","s",1,1,0,2621.69999980927,16
"847",4449574,"Mono","Contrast Sensitivity With Height","11","R","r",1,1,0,2245.80000019073,15
"848",4449574,"Mono","Contrast Sensitivity With Height","12","K","k",1,1,0,2156.80000019073,14
"849",4449574,"Mono","Contrast Sensitivity With Height","13","U","u",1,1,0,2090.30000019073,13
"850",4449574,"Mono","Contrast Sensitivity With Height","14","Z","z",1,1,0,2399,12
"851",4449574,"Mono","Contrast Sensitivity With Height","15","D","d",1,1,0,2173.59999990463,11
"852",4449574,"Mono","Contrast Sensitivity With Height","16","N","n",1,1,0,2622.30000019073,10
"853",4449574,"Mono","Contrast Sensitivity With Height","17","S","s",1,1,0,2825.09999990463,9
"854",4449574,"Mono","Contrast Sensitivity With Height","18","O","o",1,1,0,2150.7000002861,8
"855",4449574,"Mono","Contrast Sensitivity With Height","19","H","h",1,1,0,3706.69999980927,7
"856",4449574,"Mono","Contrast Sensitivity With Height","20","C","c",1,1,0,4219.7000002861,6
"857",4449574,"Mono","Contrast Sensitivity With Height","21","R","h",1,0,1,3418.59999990463,5
"858",4449574,"Mono","Contrast Sensitivity With Height","22","V","v",1,1,0,3725.40000009537,7
"859",4449574,"Mono","Contrast Sensitivity With Height","23","U","u",1,1,0,2666.19999980927,6
"860",4449574,"Mono","Contrast Sensitivity With Height","24","Z","z",1,1,0,3578,5
"861",4449574,"Mono","Contrast Sensitivity With Height","25","D","o",1,0,1,5913.19999980927,4
"862",4449574,"Mono","Contrast Sensitivity With Height","26","H","h",1,1,0,3792.5,6
"863",4449574,"Mono","Contrast Sensitivity With Height","27","R","r",1,1,0,4347.10000038147,5
"864",4449574,"Mono","Contrast Sensitivity With Height","28","O","o",1,1,0,3228.5,4
"865",4449574,"Mono","Contrast Sensitivity With Height","29","K","v",1,0,1,15688.7000002861,3
"866",4449574,"Mono","Contrast Sensitivity With Height","30","C","o",1,0,1,9412.09999990463,5
"867",4449574,"Mono","Contrast Sensitivity With Height","31","V","v",1,1,0,2179.2000002861,7
"868",4449574,"Mono","Contrast Sensitivity With Height","32","N","n",1,1,0,2537.40000009537,6
"869",4449574,"Mono","Contrast Sensitivity With Height","33","S","s",1,1,0,4212.59999990463,5
"870",4449574,"Mono","Contrast Sensitivity With Height","34","S","h",1,0,1,5558.19999980927,4
"871",4449574,"Mono","Contrast Sensitivity With Height","35","Z","z",1,1,0,3950.5,6
"872",4449574,"Mono","Contrast Sensitivity With Height","36","D","o",1,0,1,4738.59999990463,5
"873",4449574,"Mono","Contrast Sensitivity With Height","37","N","n",1,1,0,2295.90000009537,7
"874",4449574,"Mono","Contrast Sensitivity With Height","38","C","c",1,1,0,2782.90000009537,6
"875",4449574,"Mono","Contrast Sensitivity With Height","39","V","v",1,1,0,9127.5,5
"876",4449574,"Mono","Contrast Sensitivity With Height","40","K","k",1,1,0,28807.7999997139,4
"877",4449574,"Mono","Contrast Sensitivity With Height","41","H","h",1,1,0,2420.80000019073,3
"878",4449574,"Mono","Contrast Sensitivity With Height","42","U","u",1,1,0,5416.09999990463,2
"879",4449574,"Mono","Contrast Sensitivity With Height","43","R","o",1,0,1,33864.3000001907,1
"880",4449574,"Mono","Contrast Sensitivity With Height","44","O","o",1,1,0,2864.09999990463,3
"881",4475413,"Mono","Contrast Sensitivity With Height","1","K","k",1,1,0,26280.3999999985,25
"882",4475413,"Mono","Contrast Sensitivity With Height","2","C","c",1,1,0,5894.30000000075,24
"883",4475413,"Mono","Contrast Sensitivity With Height","3","U","u",1,1,0,4027.5,23
"884",4475413,"Mono","Contrast Sensitivity With Height","4","D","d",1,1,0,39405.5,22
"885",4475413,"Mono","Contrast Sensitivity With Height","5","S","t",1,0,1,12731.5,21
"886",4475413,"Mono","Contrast Sensitivity With Height","6","V","v",1,1,0,3476.79999999702,23
"887",4475413,"Mono","Contrast Sensitivity With Height","7","H","h",1,1,0,10950.6999999993,22
"888",4475413,"Mono","Contrast Sensitivity With Height","8","R","r",1,1,0,4284.39999999851,21
"889",4475413,"Mono","Contrast Sensitivity With Height","9","Z","z",1,1,0,8534.69999999925,20
"890",4475413,"Mono","Contrast Sensitivity With Height","10","O","o",1,1,0,3295.59999999776,19
"891",4475413,"Mono","Contrast Sensitivity With Height","11","N","n",1,1,0,4890.5,18
"892",4475413,"Mono","Contrast Sensitivity With Height","12","R","r",1,1,0,7193.30000000075,17
"893",4475413,"Mono","Contrast Sensitivity With Height","13","H","h",1,1,0,5769.60000000149,16
"894",4475413,"Mono","Contrast Sensitivity With Height","14","K","k",1,1,0,3046.30000000075,15
"895",4475413,"Mono","Contrast Sensitivity With Height","15","Z","z",1,1,0,4297.09999999776,14
"896",4475413,"Mono","Contrast Sensitivity With Height","16","C","c",1,1,0,6027.80000000075,13
"897",4475413,"Mono","Contrast Sensitivity With Height","17","N","n",1,1,0,4015.39999999851,12
"898",4475413,"Mono","Contrast Sensitivity With Height","18","U","u",1,1,0,3203.70000000298,11
"899",4475413,"Mono","Contrast Sensitivity With Height","19","V","v",1,1,0,7665.5,10
"900",4475413,"Mono","Contrast Sensitivity With Height","20","O","o",1,1,0,4167.5,9
"901",4475413,"Mono","Contrast Sensitivity With Height","21","S","s",1,1,0,4204.80000000075,8
"902",4475413,"Mono","Contrast Sensitivity With Height","22","D","d",1,1,0,55223.3999999985,7
"903",4475413,"Mono","Contrast Sensitivity With Height","23","H","h",1,1,0,4950.30000000075,6
"904",4475413,"Mono","Contrast Sensitivity With Height","24","O","o",1,1,0,3910.5,5
"905",4475413,"Mono","Contrast Sensitivity With Height","25","Z","n",1,0,1,11065.8000000007,4
"906",4475413,"Mono","Contrast Sensitivity With Height","26","D","o",1,0,1,5132.19999999925,6
"907",4475413,"Mono","Contrast Sensitivity With Height","27","C","c",1,1,0,4229.10000000149,8
"908",4475413,"Mono","Contrast Sensitivity With Height","28","K","k",1,1,0,5199.59999999776,7
"909",4475413,"Mono","Contrast Sensitivity With Height","29","N","n",1,1,0,4608,6
"910",4475413,"Mono","Contrast Sensitivity With Height","30","R","r",1,1,0,7671.5,5
"911",4475413,"Mono","Contrast Sensitivity With Height","31","U","u",1,1,0,6977.59999999776,4
"912",4475413,"Mono","Contrast Sensitivity With Height","32","S","",1,0,1,5990.89999999851,3
"913",4475413,"Mono","Contrast Sensitivity With Height","33","V","v",1,1,0,5250.30000000075,5
"914",4475413,"Mono","Contrast Sensitivity With Height","34","H","",1,0,1,2077.29999999702,4
"915",4475413,"Mono","Contrast Sensitivity With Height","35","C","c",1,1,0,10448.3000000007,6
"916",4475413,"Mono","Contrast Sensitivity With Height","36","Z","z",1,1,0,117284.699999999,5
"917",4475413,"Mono","Contrast Sensitivity With Height","37","U","",1,0,1,3557.70000000298,4
"918",4475413,"Mono","Contrast Sensitivity With Height","38","R","",1,0,1,4369.69999999925,6
"919",4475413,"Mono","Contrast Sensitivity With Height","39","O","o",1,1,0,5788,8
"920",4475413,"Mono","Contrast Sensitivity With Height","40","K","k",1,1,0,5511.60000000149,7
"921",4475413,"Mono","Contrast Sensitivity With Height","41","D","d",1,1,0,11852.5,6
"922",4475413,"Mono","Contrast Sensitivity With Height","42","S","g",1,0,1,7763.69999999925,5
"923",4475413,"Mono","Contrast Sensitivity With Height","43","V","v",1,1,0,3113.29999999702,7
"924",4475413,"Mono","Contrast Sensitivity With Height","44","N","m",1,0,1,3494.5,6
"925",4373538,"Mono","Contrast Sensitivity With Height","1","O","+",1,0,1,7766,25
"926",4373538,"Mono","Contrast Sensitivity With Height","2","C","",1,0,1,1128.89999997616,27
"927",4373538,"Mono","Contrast Sensitivity With Height","3","V","v",1,1,0,6372.10000002384,29
"928",4373538,"Mono","Contrast Sensitivity With Height","4","H","h",1,1,0,2439.10000002384,28
"929",4373538,"Mono","Contrast Sensitivity With Height","5","Z","z",1,1,0,2009.30000001192,27
"930",4373538,"Mono","Contrast Sensitivity With Height","6","R","r",1,1,0,1851.80000001192,26
"931",4373538,"Mono","Contrast Sensitivity With Height","7","D","d",1,1,0,5781.5,25
"932",4373538,"Mono","Contrast Sensitivity With Height","8","U","u",1,1,0,1951.60000002384,24
"933",4373538,"Mono","Contrast Sensitivity With Height","9","K","k",1,1,0,1764,23
"934",4373538,"Mono","Contrast Sensitivity With Height","10","S","s",1,1,0,2996.30000001192,22
"935",4373538,"Mono","Contrast Sensitivity With Height","11","N","n",1,1,0,2032.5,21
"936",4373538,"Mono","Contrast Sensitivity With Height","12","N","n",1,1,0,1768,20
"937",4373538,"Mono","Contrast Sensitivity With Height","13","Z","z",1,1,0,2057.90000003576,19
"938",4373538,"Mono","Contrast Sensitivity With Height","14","R","r",1,1,0,1961.69999998808,18
"939",4373538,"Mono","Contrast Sensitivity With Height","15","V","v",1,1,0,1668,17
"940",4373538,"Mono","Contrast Sensitivity With Height","16","C","c",1,1,0,2546,16
"941",4373538,"Mono","Contrast Sensitivity With Height","17","U","u",1,1,0,1766.5,15
"942",4373538,"Mono","Contrast Sensitivity With Height","18","K","k",1,1,0,1833.10000002384,14
"943",4373538,"Mono","Contrast Sensitivity With Height","19","O","o",1,1,0,1615,13
"944",4373538,"Mono","Contrast Sensitivity With Height","20","H","h",1,1,0,1808.69999998808,12
"945",4373538,"Mono","Contrast Sensitivity With Height","21","D","d",1,1,0,1621.69999998808,11
"946",4373538,"Mono","Contrast Sensitivity With Height","22","S","s",1,1,0,1640.80000001192,10
"947",4373538,"Mono","Contrast Sensitivity With Height","23","O","o",1,1,0,2424.60000002384,9
"948",4373538,"Mono","Contrast Sensitivity With Height","24","Z","z",1,1,0,2680.80000001192,8
"949",4373538,"Mono","Contrast Sensitivity With Height","25","S","s",1,1,0,2148.79999995232,7
"950",4373538,"Mono","Contrast Sensitivity With Height","26","N","n",1,1,0,2078.30000001192,6
"951",4373538,"Mono","Contrast Sensitivity With Height","27","C","c",1,1,0,1919.90000003576,5
"952",4373538,"Mono","Contrast Sensitivity With Height","28","V","v",1,1,0,5576.09999996424,4
"953",4373538,"Mono","Contrast Sensitivity With Height","29","K","k",1,1,0,2683.80000001192,3
"954",4373538,"Mono","Contrast Sensitivity With Height","30","H","h",1,1,0,3626.30000001192,2
"955",4373538,"Mono","Contrast Sensitivity With Height","31","U","u",1,1,0,4246.10000002384,1
"956",4373538,"Mono","Contrast Sensitivity With Height","32","R","r",1,1,0,4490.40000003576,1
"957",4373538,"Mono","Contrast Sensitivity With Height","33","D","n",1,0,1,12987.8999999762,1
"958",4373538,"Mono","Contrast Sensitivity With Height","34","D","d",1,1,0,4102.19999998808,3
"959",4373538,"Mono","Contrast Sensitivity With Height","35","U","u",1,1,0,2896.80000001192,2
"960",4373538,"Mono","Contrast Sensitivity With Height","36","N","n",1,1,0,3440.59999996424,1
"961",4373538,"Mono","Contrast Sensitivity With Height","37","H","h",1,1,0,3203.19999998808,1
"962",4373538,"Mono","Contrast Sensitivity With Height","38","Z","u",1,0,1,4141.10000002384,1
"963",4373538,"Mono","Contrast Sensitivity With Height","39","K","",1,0,1,1040.40000003576,3
"964",4373538,"Mono","Contrast Sensitivity With Height","40","C","c",1,1,0,2185.5,5
"965",4373538,"Mono","Contrast Sensitivity With Height","41","R","r",1,1,0,1838.89999997616,4
"966",4373538,"Mono","Contrast Sensitivity With Height","42","V","v",1,1,0,1791.09999996424,3
"967",4373538,"Mono","Contrast Sensitivity With Height","43","S","s",1,1,0,3602.60000002384,2
"968",4373538,"Mono","Contrast Sensitivity With Height","44","O","u",1,0,1,2113.10000002384,1
"969",4333147,"Mono","Contrast Sensitivity With Height","1","O","a",1,0,1,93912.1000001431,25
"970",4333147,"Mono","Contrast Sensitivity With Height","2","D","d",1,1,0,11958.2999999523,27
"971",4333147,"Mono","Contrast Sensitivity With Height","3","K","k",1,1,0,7826,26
"972",4333147,"Mono","Contrast Sensitivity With Height","4","S","s",1,1,0,6284.90000009537,25
"973",4333147,"Mono","Contrast Sensitivity With Height","5","Z","z",1,1,0,7937.10000014305,24
"974",4333147,"Mono","Contrast Sensitivity With Height","6","H","h",1,1,0,9579.10000014305,23
"975",4333147,"Mono","Contrast Sensitivity With Height","7","V","v",1,1,0,6807.10000014305,22
"976",4333147,"Mono","Contrast Sensitivity With Height","8","C","c",1,1,0,6848.29999995232,21
"977",4333147,"Mono","Contrast Sensitivity With Height","9","R","r",1,1,0,7159.70000004768,20
"978",4333147,"Mono","Contrast Sensitivity With Height","10","U","u",1,1,0,5480.20000004768,19
"979",4333147,"Mono","Contrast Sensitivity With Height","11","N","n",1,1,0,5744,18
"980",4333147,"Mono","Contrast Sensitivity With Height","12","U","u",1,1,0,4738.20000004768,17
"981",4333147,"Mono","Contrast Sensitivity With Height","13","K","k",1,1,0,8504.89999985695,16
"982",4333147,"Mono","Contrast Sensitivity With Height","14","S","s",1,1,0,5681.29999995232,15
"983",4333147,"Mono","Contrast Sensitivity With Height","15","N","n",1,1,0,5034.60000014305,14
"984",4333147,"Mono","Contrast Sensitivity With Height","16","C","c",1,1,0,14037.2999999523,13
"985",4333147,"Mono","Contrast Sensitivity With Height","17","Z","z",1,1,0,8551.60000014305,12
"986",4333147,"Mono","Contrast Sensitivity With Height","18","H","h",1,1,0,6834.60000014305,11
"987",4333147,"Mono","Contrast Sensitivity With Height","19","D","d",1,1,0,6384.20000004768,10
"988",4333147,"Mono","Contrast Sensitivity With Height","20","O","o",1,1,0,6420.60000014305,9
"989",4333147,"Mono","Contrast Sensitivity With Height","21","R","r",1,1,0,5833.10000014305,8
"990",4333147,"Mono","Contrast Sensitivity With Height","22","V","v",1,1,0,6219.80000019073,7
"991",4333147,"Mono","Contrast Sensitivity With Height","23","K","k",1,1,0,11480.1000001431,6
"992",4333147,"Mono","Contrast Sensitivity With Height","24","H","h",1,1,0,6357.70000004768,5
"993",4333147,"Mono","Contrast Sensitivity With Height","25","S","s",1,1,0,8542.70000004768,4
"994",4333147,"Mono","Contrast Sensitivity With Height","26","C","c",1,1,0,8193.29999995232,3
"995",4333147,"Mono","Contrast Sensitivity With Height","27","V","a",1,0,1,33005.2999999523,2
"996",4333147,"Mono","Contrast Sensitivity With Height","28","U","u",1,1,0,12364.5,4
"997",4333147,"Mono","Contrast Sensitivity With Height","29","O","o",1,1,0,5699.79999995232,3
"998",4333147,"Mono","Contrast Sensitivity With Height","30","Z","a",1,0,1,12633.9000000954,2
"999",4333147,"Mono","Contrast Sensitivity With Height","31","N","n",1,1,0,5790.30000019073,4
"1000",4333147,"Mono","Contrast Sensitivity With Height","32","D","d",1,1,0,5748,3
"1001",4333147,"Mono","Contrast Sensitivity With Height","33","R","a",1,0,1,10347,2
"1002",4333147,"Mono","Contrast Sensitivity With Height","34","K","k",1,1,0,6587.39999985695,4
"1003",4333147,"Mono","Contrast Sensitivity With Height","35","N","a",1,0,1,12754.3000001907,3
"1004",4333147,"Mono","Contrast Sensitivity With Height","36","C","c",1,1,0,6641.69999980927,5
"1005",4333147,"Mono","Contrast Sensitivity With Height","37","R","r",1,1,0,5856.89999985695,4
"1006",4333147,"Mono","Contrast Sensitivity With Height","38","O","o",1,1,0,5024.10000014305,3
"1007",4333147,"Mono","Contrast Sensitivity With Height","39","U","a",1,0,1,12752.5999999046,2
"1008",4333147,"Mono","Contrast Sensitivity With Height","40","Z","z",1,1,0,5418.70000004768,4
"1009",4333147,"Mono","Contrast Sensitivity With Height","41","H","h",1,1,0,12998.2000000477,3
"1010",4333147,"Mono","Contrast Sensitivity With Height","42","D","a",1,0,1,12149.9000000954,2
"1011",4333147,"Mono","Contrast Sensitivity With Height","43","S","s",1,1,0,6697.79999995232,4
"1012",4333147,"Mono","Contrast Sensitivity With Height","44","V","v",1,1,0,5647.69999980927,3
"1013",4488838,"Mono","Contrast Sensitivity With Height","1","D","d",1,1,0,6377.09999999404,25
"1014",4488838,"Mono","Contrast Sensitivity With Height","2","Z","z",1,1,0,3313.5,24
"1015",4488838,"Mono","Contrast Sensitivity With Height","3","O","o",1,1,0,2297,23
"1016",4488838,"Mono","Contrast Sensitivity With Height","4","K","k",1,1,0,2265.20000000298,22
"1017",4488838,"Mono","Contrast Sensitivity With Height","5","C","c",1,1,0,2346.40000000596,21
"1018",4488838,"Mono","Contrast Sensitivity With Height","6","V","v",1,1,0,1976.59999999404,20
"1019",4488838,"Mono","Contrast Sensitivity With Height","7","H","h",1,1,0,1837.59999999404,19
"1020",4488838,"Mono","Contrast Sensitivity With Height","8","R","r",1,1,0,2138.19999998808,18
"1021",4488838,"Mono","Contrast Sensitivity With Height","9","S","s",1,1,0,1828.20000000298,17
"1022",4488838,"Mono","Contrast Sensitivity With Height","10","U","u",1,1,0,1839.10000000894,16
"1023",4488838,"Mono","Contrast Sensitivity With Height","11","N","n",1,1,0,2021.20000000298,15
"1024",4488838,"Mono","Contrast Sensitivity With Height","12","U","u",1,1,0,1676.79999999702,14
"1025",4488838,"Mono","Contrast Sensitivity With Height","13","V","v",1,1,0,1801.5,13
"1026",4488838,"Mono","Contrast Sensitivity With Height","14","D","d",1,1,0,1566.09999999404,12
"1027",4488838,"Mono","Contrast Sensitivity With Height","15","Z","z",1,1,0,1852.60000000894,11
"1028",4488838,"Mono","Contrast Sensitivity With Height","16","O","o",1,1,0,2059.5,10
"1029",4488838,"Mono","Contrast Sensitivity With Height","17","R","r",1,1,0,2060.69999998808,9
"1030",4488838,"Mono","Contrast Sensitivity With Height","18","K","k",1,1,0,1984.89999999106,8
"1031",4488838,"Mono","Contrast Sensitivity With Height","19","H","h",1,1,0,2036,7
"1032",4488838,"Mono","Contrast Sensitivity With Height","20","N","n",1,1,0,3066.20000000298,6
"1033",4488838,"Mono","Contrast Sensitivity With Height","21","C","c",1,1,0,2628.59999999404,5
"1034",4488838,"Mono","Contrast Sensitivity With Height","22","S","s",1,1,0,2209.29999999702,4
"1035",4488838,"Mono","Contrast Sensitivity With Height","23","D","d",1,1,0,19736.200000003,3
"1036",4488838,"Mono","Contrast Sensitivity With Height","24","O","o",1,1,0,4436.90000000596,2
"1037",4488838,"Mono","Contrast Sensitivity With Height","25","Z","fg",1,0,1,4073.19999998808,1
"1038",4488838,"Mono","Contrast Sensitivity With Height","26","H","d",1,0,1,5881.59999999404,3
"1039",4488838,"Mono","Contrast Sensitivity With Height","27","U","u",1,1,0,4637.80000001192,5
"1040",4488838,"Mono","Contrast Sensitivity With Height","28","N","n",1,1,0,2882.59999999404,4
"1041",4488838,"Mono","Contrast Sensitivity With Height","29","V","v",1,1,0,4047.20000000298,3
"1042",4488838,"Mono","Contrast Sensitivity With Height","30","S","y",1,0,1,5757.20000000298,2
"1043",4488838,"Mono","Contrast Sensitivity With Height","31","C","c",1,1,0,2436.20000000298,4
"1044",4488838,"Mono","Contrast Sensitivity With Height","32","K","n",1,0,1,2997.79999999702,3
"1045",4488838,"Mono","Contrast Sensitivity With Height","33","R","r",1,1,0,4415.5,5
"1046",4488838,"Mono","Contrast Sensitivity With Height","34","U","u",1,1,0,3064.69999998808,4
"1047",4488838,"Mono","Contrast Sensitivity With Height","35","H","h",1,1,0,7729.29999999702,3
"1048",4488838,"Mono","Contrast Sensitivity With Height","36","C","c",1,1,0,3816.59999999404,2
"1049",4488838,"Mono","Contrast Sensitivity With Height","37","N","i",1,0,1,6278.20000000298,1
"1050",4488838,"Mono","Contrast Sensitivity With Height","38","K","k",1,1,0,4356,3
"1051",4488838,"Mono","Contrast Sensitivity With Height","39","D","d",1,1,0,4793.29999999702,2
"1052",4488838,"Mono","Contrast Sensitivity With Height","40","S","w",1,0,1,5547.29999999702,1
"1053",4488838,"Mono","Contrast Sensitivity With Height","41","R","r",1,1,0,2298.59999999404,3
"1054",4488838,"Mono","Contrast Sensitivity With Height","42","Z","z",1,1,0,2900,2
"1055",4488838,"Mono","Contrast Sensitivity With Height","43","O","r",1,0,1,6212.29999999702,1
"1056",4488838,"Mono","Contrast Sensitivity With Height","44","V","v",1,1,0,2952.89999999106,3
"1057",4429865,"Mono","Contrast Sensitivity With Height","1","U","u",1,1,0,2387.61499989778,25
"1058",4429865,"Mono","Contrast Sensitivity With Height","2","C","c",1,1,0,1208.23500026017,24
"1059",4429865,"Mono","Contrast Sensitivity With Height","3","D","d",1,1,0,1134.36499983072,23
"1060",4429865,"Mono","Contrast Sensitivity With Height","4","R","r",1,1,0,1137.98500038683,22
"1061",4429865,"Mono","Contrast Sensitivity With Height","5","V","v",1,1,0,1357.76000004262,21
"1062",4429865,"Mono","Contrast Sensitivity With Height","6","O","o",1,1,0,1452.54499977455,20
"1063",4429865,"Mono","Contrast Sensitivity With Height","7","N","n",1,1,0,1234.46500021964,19
"1064",4429865,"Mono","Contrast Sensitivity With Height","8","K","k",1,1,0,1417.43499971926,18
"1065",4429865,"Mono","Contrast Sensitivity With Height","9","Z","z",1,1,0,1413.83000044152,17
"1066",4429865,"Mono","Contrast Sensitivity With Height","10","S","s",1,1,0,1456.31000027061,16
"1067",4429865,"Mono","Contrast Sensitivity With Height","11","H","h",1,1,0,1361.07500037178,15
"1068",4429865,"Mono","Contrast Sensitivity With Height","12","C","c",1,1,0,1267.90999993682,14
"1069",4429865,"Mono","Contrast Sensitivity With Height","13","N","n",1,1,0,1424.98499993235,13
"1070",4429865,"Mono","Contrast Sensitivity With Height","14","U","u",1,1,0,1449.62000008672,12
"1071",4429865,"Mono","Contrast Sensitivity With Height","15","R","r",1,1,0,1051.09500000253,11
"1072",4429865,"Mono","Contrast Sensitivity With Height","16","S","s",1,1,0,1392.68499985337,10
"1073",4429865,"Mono","Contrast Sensitivity With Height","17","Z","z",1,1,0,995.500000193715,9
"1074",4429865,"Mono","Contrast Sensitivity With Height","18","K","k",1,1,0,1310.1749997586,8
"1075",4429865,"Mono","Contrast Sensitivity With Height","19","O","o",1,1,0,3138.87500017881,7
"1076",4429865,"Mono","Contrast Sensitivity With Height","20","D","d",1,1,0,1040.8700001426,6
"1077",4429865,"Mono","Contrast Sensitivity With Height","21","H","h",1,1,0,1245.45500008389,5
"1078",4429865,"Mono","Contrast Sensitivity With Height","22","V","v",1,1,0,1416.20499966666,4
"1079",4429865,"Mono","Contrast Sensitivity With Height","23","N","h",1,0,1,1838.87499989942,3
"1080",4429865,"Mono","Contrast Sensitivity With Height","24","Z","z",1,1,0,1369.14000008255,5
"1081",4429865,"Mono","Contrast Sensitivity With Height","25","K","k",1,1,0,1733.31000003964,4
"1082",4429865,"Mono","Contrast Sensitivity With Height","26","C","o",1,0,1,3414.27499987185,3
"1083",4429865,"Mono","Contrast Sensitivity With Height","27","H","h",1,1,0,1994.05000032857,5
"1084",4429865,"Mono","Contrast Sensitivity With Height","28","V","v",1,1,0,1596.33500035852,4
"1085",4429865,"Mono","Contrast Sensitivity With Height","29","U","u",1,1,0,1898.64499960095,3
"1086",4429865,"Mono","Contrast Sensitivity With Height","30","R","s",1,0,1,6704.73500015214,2
"1087",4429865,"Mono","Contrast Sensitivity With Height","31","D","d",1,1,0,1353.11500029638,4
"1088",4429865,"Mono","Contrast Sensitivity With Height","32","S","",1,0,1,1279.1650001891,3
"1089",4429865,"Mono","Contrast Sensitivity With Height","33","O","o",1,1,0,1680.55999977514,5
"1090",4429865,"Mono","Contrast Sensitivity With Height","34","V","v",1,1,0,3136.62000000477,4
"1091",4429865,"Mono","Contrast Sensitivity With Height","35","Z","v",1,0,1,2346.39500034973,3
"1092",4429865,"Mono","Contrast Sensitivity With Height","36","H","h",1,1,0,1352.07499982789,5
"1093",4429865,"Mono","Contrast Sensitivity With Height","37","K","k",1,1,0,13909.2299998738,4
"1094",4429865,"Mono","Contrast Sensitivity With Height","38","O","oi",1,0,1,1428.62999998033,3
"1095",4429865,"Mono","Contrast Sensitivity With Height","39","N","d",1,0,1,1456.42000017688,5
"1096",4429865,"Mono","Contrast Sensitivity With Height","40","R","r",1,1,0,1066.32999982685,7
"1097",4429865,"Mono","Contrast Sensitivity With Height","41","S","s",1,1,0,1534.7250001505,6
"1098",4429865,"Mono","Contrast Sensitivity With Height","42","C","c",1,1,0,1385.07999991998,5
"1099",4429865,"Mono","Contrast Sensitivity With Height","43","D","d",1,1,0,1226.4149999246,4
"1100",4429865,"Mono","Contrast Sensitivity With Height","44","U","u",1,1,0,2148.57000019401,3
"1101",4482002,"Mono","Contrast Sensitivity With Height","1","V","v",1,1,0,2732,25
"1102",4482002,"Mono","Contrast Sensitivity With Height","2","H","h",1,1,0,2268,24
"1103",4482002,"Mono","Contrast Sensitivity With Height","3","N","n",1,1,0,1867,23
"1104",4482002,"Mono","Contrast Sensitivity With Height","4","R","r",1,1,0,2905,22
"1105",4482002,"Mono","Contrast Sensitivity With Height","5","D","d",1,1,0,2152,21
"1106",4482002,"Mono","Contrast Sensitivity With Height","6","S","s",1,1,0,2683,20
"1107",4482002,"Mono","Contrast Sensitivity With Height","7","C","c",1,1,0,2797,19
"1108",4482002,"Mono","Contrast Sensitivity With Height","8","Z","z",1,1,0,2078,18
"1109",4482002,"Mono","Contrast Sensitivity With Height","9","U","u",1,1,0,2869,17
"1110",4482002,"Mono","Contrast Sensitivity With Height","10","K","k",1,1,0,2107,16
"1111",4482002,"Mono","Contrast Sensitivity With Height","11","O","o",1,1,0,1895,15
"1112",4482002,"Mono","Contrast Sensitivity With Height","12","H","h",1,1,0,1966,14
"1113",4482002,"Mono","Contrast Sensitivity With Height","13","V","v",1,1,0,2410,13
"1114",4482002,"Mono","Contrast Sensitivity With Height","14","D","d",1,1,0,2502,12
"1115",4482002,"Mono","Contrast Sensitivity With Height","15","K","k",1,1,0,2083,11
"1116",4482002,"Mono","Contrast Sensitivity With Height","16","R","r",1,1,0,2508,10
"1117",4482002,"Mono","Contrast Sensitivity With Height","17","S","s",1,1,0,3152,9
"1118",4482002,"Mono","Contrast Sensitivity With Height","18","N","n",1,1,0,2340,8
"1119",4482002,"Mono","Contrast Sensitivity With Height","19","U","u",1,1,0,2025,7
"1120",4482002,"Mono","Contrast Sensitivity With Height","20","O","o",1,1,0,1993,6
"1121",4482002,"Mono","Contrast Sensitivity With Height","21","C","c",1,1,0,2586,5
"1122",4482002,"Mono","Contrast Sensitivity With Height","22","Z","z",1,1,0,2301,4
"1123",4482002,"Mono","Contrast Sensitivity With Height","23","Z","z",1,1,0,3098,3
"1124",4482002,"Mono","Contrast Sensitivity With Height","24","C","c",1,1,0,2998,2
