"","X1","Participant.Private.ID","Eye.Condition","Trial.Number","Attempt","Reaction.Time","X.Coordinate","Y.Coordinate","VS_Puzzle","Correct"
"1",4,4333147,"Mono",4,1,55316.4000000954,493,119,"Image1.PNG",1
"2",8,4333590,"Mono",1,1,7496.89999999991,493,117,"Image1.PNG",1
"3",20,4334401,"Mono",2,1,5065,310,141,"Image1.PNG",0
"4",27,4339358,"Mono",1,1,13256.8000000119,496,119,"Image1.PNG",1
"5",36,4381159,"Mono",1,1,16716.774999979,492,118,"Image1.PNG",1
"6",47,4424285,"Mono",4,1,13472.599999994,504,118,"Image1.PNG",1
"7",55,4449574,"Mono",3,1,2149,498,119,"Image1.PNG",1
"8",64,4449717,"Mono",3,1,13389.5,304,39,"Image1.PNG",0
"9",73,4494914,"Mono",1,1,24397.299999997,494,112,"Image1.PNG",1
"10",82,4495599,"Mono",1,1,8651.90000000596,492,118,"Image1.PNG",1
"11",88,4469128,"Mono",1,1,74137.9549999983,496,125,"Image1.PNG",1
"12",96,4454520,"Mono",4,1,16872.0999999996,509,120,"Image1.PNG",1
"13",105,4452039,"Mono",4,1,9095.19999999995,509,115,"Image1.PNG",1
"14",113,4449137,"Mono",2,1,2826.70000004768,499,118,"Image1.PNG",1
"15",124,4447916,"Mono",4,1,4418.30000000028,490,120,"Image1.PNG",1
"16",129,4443776,"Mono",3,1,2051,491,129,"Image1.PNG",1
"17",138,4404605,"Mono",1,1,6309.30000000005,491,123,"Image1.PNG",1
"18",152,4384320,"Mono",3,1,8068.19999992847,497,128,"Image1.PNG",1
"19",164,4373538,"Mono",4,1,14850.6999999881,492,121,"Image1.PNG",1
"20",171,4336342,"Mono",1,1,11657,485,121,"Image1.PNG",1
"21",182,4450348,"Mono",3,1,1635.60000014305,489,127,"Image1.PNG",1
"22",193,4488838,"Mono",2,1,8386.90000000596,494,120,"Image1.PNG",1
"23",204,4475413,"Mono",3,1,65437.3999999985,494,121,"Image1.PNG",1
"24",207,4448050,"Mono",2,1,27875,492,118,"Image1.PNG",1
"25",216,4372219,"Mono",4,1,6605.69999999553,491,119,"Image1.PNG",1
"26",225,4450899,"Mono",1,1,8490.69999980927,505,124,"Image1.PNG",1
"27",234,4460944,"Mono",1,1,5718.5,490,121,"Image1.PNG",1
"28",246,4482002,"Mono",3,1,14558,485,117,"Image1.PNG",1
"29",253,4495135,"Mono",3,1,2345.69999980927,492,122,"Image1.PNG",1
"30",262,4491824,"Mono",3,1,2529.29999999702,500,168,"Image1.PNG",0
"31",270,4489139,"Mono",4,1,36966.0999999046,497,118,"Image1.PNG",1
"32",276,4476704,"Mono",1,1,17166,508,118,"Image1.PNG",1
"33",287,4472380,"Mono",4,1,27355.1000000238,491,117,"Image1.PNG",1
"34",293,4452506,"Mono",3,1,26166,490,122,"Image1.PNG",1
"35",300,4449420,"Mono",3,1,12704.5,502,111,"Image1.PNG",1
"36",306,4449369,"Mono",1,1,14379.8999998569,492,122,"Image1.PNG",1
"37",312,4449101,"Mono",1,1,5501.69999998808,500,125,"Image1.PNG",1
"38",323,4447985,"Mono",4,1,26309.7999999523,483,115,"Image1.PNG",1
"39",330,4445309,"Mono",4,1,47142.3000000715,498,120,"Image1.PNG",1
"40",336,4429865,"Mono",4,1,5847.43000008166,498,120,"Image1.PNG",1
"41",346,4408537,"Mono",2,1,9779.5,492,117,"Image1.PNG",1
"42",359,4392148,"Mono",3,1,6246.5,491,116,"Image1.PNG",1
"43",371,4379880,"Mono",3,1,15386,510,123,"Image1.PNG",1
"44",382,4354253,"Mono",4,1,4473.5,492,120,"Image1.PNG",1
"45",393,4336146,"Mono",4,1,4350.20000000298,492,121,"Image1.PNG",1
"46",402,4334877,"Mono",1,1,6078.79999995232,486,122,"Image1.PNG",1
"47",412,4333569,"Mono",1,1,11107.5999999046,488,120,"Image1.PNG",1
"48",425,4332728,"Mono",3,1,1897,488,119,"Image1.PNG",1
"49",435,4336342,"Binoc",1,1,5920,491,121,"Image1.PNG",1
"50",450,4424285,"Binoc",4,1,2254.70000001788,477,114,"Image1.PNG",1
"51",461,4447916,"Binoc",3,1,3841.89999999944,497,121,"Image1.PNG",1
"52",469,4448050,"Binoc",4,1,37188,489,122,"Image1.PNG",1
"53",478,4449574,"Binoc",3,1,2288.30000019073,500,112,"Image1.PNG",1
"54",489,4450348,"Binoc",3,1,1198.79999995232,483,122,"Image1.PNG",1
"55",501,4495599,"Binoc",3,1,3029.90000000596,495,117,"Image1.PNG",1
"56",510,4494914,"Binoc",1,1,41115.3999999911,489,120,"Image1.PNG",1
"57",520,4488838,"Binoc",3,1,7224.10000000894,500,123,"Image1.PNG",1
"58",526,4475413,"Binoc",1,1,5271.89999999851,491,119,"Image1.PNG",1
"59",538,4469128,"Binoc",3,1,36210.0550000032,490,121,"Image1.PNG",1
"60",543,4449717,"Binoc",1,1,2839.39999999106,491,125,"Image1.PNG",1
"61",553,4449137,"Binoc",3,1,18539.7000000477,493,118,"Image1.PNG",1
"62",561,4443776,"Binoc",1,1,2336.09999990463,488,124,"Image1.PNG",1
"63",575,4384320,"Binoc",4,1,3523.80000007153,512,118,"Image1.PNG",1
"64",586,4373538,"Binoc",4,1,5203.20000004768,485,117,"Image1.PNG",1
"65",597,4339358,"Binoc",4,1,21360.5,490,118,"Image1.PNG",1
"66",606,4334401,"Binoc",3,1,57774.5,493,120,"Image1.PNG",1
"67",620,4333590,"Binoc",4,1,20528.8000000003,504,111,"Image1.PNG",1
"68",629,4333147,"Binoc",2,1,3622.70000004768,496,119,"Image1.PNG",1
"69",640,4381159,"Binoc",4,1,14382.1400000015,491,119,"Image1.PNG",1
"70",648,4454520,"Binoc",2,1,9243.59999999963,494,118,"Image1.PNG",1
"71",659,4452039,"Binoc",4,1,14036.8999999999,470,117,"Image1.PNG",1
"72",669,4404605,"Binoc",4,1,11536.8999999999,486,118,"Image1.PNG",1
"73",680,4354253,"Binoc",3,1,6246.19999999925,487,118,"Image1.PNG",1
"74",691,4491824,"Binoc",4,1,28814.200000003,496,122,"Image1.PNG",1
"75",696,4392148,"Binoc",1,1,15853.900000006,491,124,"Image1.PNG",1
"76",708,4379880,"Binoc",1,1,8229,495,117,"Image1.PNG",1
"77",718,4372219,"Binoc",1,1,3358.60000000149,500,122,"Image1.PNG",1
"78",731,4336146,"Binoc",4,1,4107.09999999404,496,117,"Image1.PNG",1
"79",742,4334877,"Binoc",3,1,31576.5,506,124,"Image1.PNG",1
"80",753,4333569,"Binoc",2,1,10853.5,488,126,"Image1.PNG",1
"81",764,4332728,"Binoc",1,1,5068,484,121,"Image1.PNG",1
"82",776,4495135,"Binoc",2,1,2249.5,499,118,"Image1.PNG",1
"83",785,4476704,"Binoc",3,1,29144,470,126,"Image1.PNG",1
"84",793,4472380,"Binoc",3,1,6884.5,502,125,"Image1.PNG",1
"85",801,4449420,"Binoc",3,1,16383.400000006,489,114,"Image1.PNG",1
"86",808,4447985,"Binoc",3,1,5141.60000014305,492,121,"Image1.PNG",1
"87",816,4445309,"Binoc",4,1,18749,491,126,"Image1.PNG",1
"88",823,4429865,"Binoc",2,1,5754.30499995127,496,120,"Image1.PNG",1
"89",837,4408537,"Binoc",4,1,8440.70000004768,480,120,"Image1.PNG",1
"90",845,4489139,"Binoc",2,1,3673.10000002384,488,122,"Image1.PNG",1
"91",859,4482002,"Binoc",4,1,15843,490,125,"Image1.PNG",1
"92",866,4460944,"Binoc",3,1,4129.30000001192,489,121,"Image1.PNG",1
"93",875,4452506,"Binoc",1,1,26179,491,122,"Image1.PNG",1
"94",882,4450899,"Binoc",2,1,18784.5,495,130,"Image1.PNG",1
"95",893,4449369,"Binoc",1,1,8744.59999990463,500,121,"Image1.PNG",1
"96",903,4449101,"Binoc",2,1,4970.40000000596,492,113,"Image1.PNG",1
"97",1,4333147,"Mono",1,1,34127.7999999523,160,214,"Image2.PNG",1
"98",9,4333590,"Mono",2,1,6168.69999999995,163,214,"Image2.PNG",1
"99",22,4334401,"Mono",4,1,5664.09999990463,161,212,"Image2.PNG",1
"100",30,4339358,"Mono",4,1,6036.39999997616,160,209,"Image2.PNG",1
"101",38,4381159,"Mono",3,1,31981.2450000318,160,217,"Image2.PNG",1
"102",46,4424285,"Mono",3,1,5701.80000001192,163,213,"Image2.PNG",1
"103",56,4449574,"Mono",4,1,5924.60000038147,165,212,"Image2.PNG",1
"104",63,4449717,"Mono",2,1,4195,157,128,"Image2.PNG",0
"105",74,4494914,"Mono",2,1,5264.20000000298,169,215,"Image2.PNG",1
"106",83,4495599,"Mono",2,1,37487,161,211,"Image2.PNG",1
"107",90,4469128,"Mono",3,1,29016.844999991,164,221,"Image2.PNG",1
"108",93,4454520,"Mono",1,1,9285.40000000037,160,214.753521126761,"Image2.PNG",1
"109",104,4452039,"Mono",3,1,9028.80000000005,150,211,"Image2.PNG",1
"110",112,4449137,"Mono",1,1,2763.5,160,209,"Image2.PNG",1
"111",122,4447916,"Mono",2,1,56685.0999999996,163,216,"Image2.PNG",1
"112",130,4443776,"Mono",4,1,12332.8000001907,170,209,"Image2.PNG",1
"113",141,4404605,"Mono",4,1,6683.70000000019,173,217,"Image2.PNG",1
"114",150,4384320,"Mono",1,1,7504.30000007153,165,216,"Image2.PNG",1
"115",163,4373538,"Mono",3,1,9747.80000001192,163,212,"Image2.PNG",1
"116",173,4336342,"Mono",3,1,28509,166,210,"Image2.PNG",1
"117",180,4450348,"Mono",1,1,5752,172,209,"Image2.PNG",1
"118",195,4488838,"Mono",4,1,9959.20000000298,165,215,"Image2.PNG",1
"119",202,4475413,"Mono",1,1,6747.80000000075,160,214,"Image2.PNG",1
"120",208,4448050,"Mono",3,1,26371,159,211,"Image2.PNG",1
"121",215,4372219,"Mono",3,1,4260.5,161,206,"Image2.PNG",1
"122",227,4450899,"Mono",3,1,29919.6000001431,158,215,"Image2.PNG",1
"123",236,4460944,"Mono",3,1,5679.19999998808,156,214,"Image2.PNG",1
"124",245,4482002,"Mono",2,1,11842,161,205,"Image2.PNG",1
"125",251,4495135,"Mono",1,1,4930.60000038147,159,213,"Image2.PNG",1
"126",263,4491824,"Mono",4,1,2827.5,289,236,"Image2.PNG",0
"127",269,4489139,"Mono",3,1,16596.5,158,206,"Image2.PNG",1
"128",277,4476704,"Mono",2,1,12285,172,215,"Image2.PNG",1
"129",284,4472380,"Mono",1,1,16572.8999999762,164,213,"Image2.PNG",1
"130",291,4452506,"Mono",1,1,14245,159,213,"Image2.PNG",1
"131",301,4449420,"Mono",4,1,7449.09999999404,149.232087227414,212.746478873239,"Image2.PNG",1
"132",308,4449369,"Mono",3,1,6593,159,216,"Image2.PNG",1
"133",313,4449101,"Mono",2,1,15576.900000006,491.764797507788,12.9545454545455,"Image2.PNG",0
"134",322,4447985,"Mono",3,1,6950.79999995232,148,209,"Image2.PNG",1
"135",329,4445309,"Mono",3,1,30002.1000000238,176,216,"Image2.PNG",1
"136",334,4429865,"Mono",2,1,2800.47499993816,166,216,"Image2.PNG",1
"137",345,4408537,"Mono",1,1,19149,155,211,"Image2.PNG",1
"138",360,4392148,"Mono",4,1,6251.29999998212,161,206,"Image2.PNG",1
"139",369,4379880,"Mono",1,1,3920,168,213,"Image2.PNG",1
"140",381,4354253,"Mono",3,1,29628.4000000004,158,213,"Image2.PNG",1
"141",392,4336146,"Mono",3,1,5581.80000000447,180,205,"Image2.PNG",1
"142",405,4334877,"Mono",4,1,4852.30000007153,160,212,"Image2.PNG",1
"143",415,4333569,"Mono",4,1,5194.2000002861,159,211,"Image2.PNG",1
"144",426,4332728,"Mono",4,1,2815,154,213,"Image2.PNG",1
"145",438,4336342,"Binoc",4,1,12610,159,215,"Image2.PNG",1
"146",447,4424285,"Binoc",1,1,22416.400000006,153,216,"Image2.PNG",1
"147",459,4447916,"Binoc",1,1,49567.8999999999,156,213,"Image2.PNG",1
"148",468,4448050,"Binoc",3,1,17271,148,212,"Image2.PNG",1
"149",479,4449574,"Binoc",4,1,4766.59999990463,170,214,"Image2.PNG",1
"150",487,4450348,"Binoc",1,1,6895.79999995232,162,210,"Image2.PNG",1
"151",502,4495599,"Binoc",4,1,10788.5,155,208,"Image2.PNG",1
"152",513,4494914,"Binoc",4,1,19378.799999997,163,208,"Image2.PNG",1
"153",519,4488838,"Binoc",2,1,3938.79999999702,161,210,"Image2.PNG",1
"154",528,4475413,"Binoc",3,1,5165.79999999702,158,213,"Image2.PNG",1
"155",537,4469128,"Binoc",2,1,44791.5700000012,153,212,"Image2.PNG",1
"156",545,4449717,"Binoc",3,1,11264.5,163,213,"Image2.PNG",1
"157",554,4449137,"Binoc",4,1,7278.30000019073,168,208,"Image2.PNG",1
"158",564,4443776,"Binoc",4,1,2375.09999990463,162,208,"Image2.PNG",1
"159",574,4384320,"Binoc",3,1,5984.80000007153,172,219,"Image2.PNG",1
"160",583,4373538,"Binoc",1,1,5370.10000002384,144,208,"Image2.PNG",1
"161",596,4339358,"Binoc",3,1,9319.5,166,213,"Image2.PNG",1
"162",607,4334401,"Binoc",4,1,8543.5,152,196,"Image2.PNG",0
"163",619,4333590,"Binoc",3,1,13600.5,170,207,"Image2.PNG",1
"164",631,4333147,"Binoc",4,1,7641.79999995232,164,208,"Image2.PNG",1
"165",638,4381159,"Binoc",2,1,23881.5300000133,161,213,"Image2.PNG",1
"166",647,4454520,"Binoc",1,1,23458,173,212.746478873239,"Image2.PNG",1
"167",657,4452039,"Binoc",2,1,23196.1000000001,167,207,"Image2.PNG",1
"168",667,4404605,"Binoc",2,1,11760,156,209,"Image2.PNG",1
"169",679,4354253,"Binoc",2,1,3034,153,211,"Image2.PNG",1
"170",690,4491824,"Binoc",3,1,171765.799999997,162,216,"Image2.PNG",1
"171",698,4392148,"Binoc",3,1,7315.69999998808,159,210,"Image2.PNG",1
"172",711,4379880,"Binoc",4,1,12131,151,188,"Image2.PNG",0
"173",721,4372219,"Binoc",4,1,2956.39999999851,154,210,"Image2.PNG",1
"174",729,4336146,"Binoc",2,1,6764.70000000298,167,215,"Image2.PNG",1
"175",743,4334877,"Binoc",4,1,5390.40000009537,160,208,"Image2.PNG",1
"176",752,4333569,"Binoc",1,1,9966,165,215,"Image2.PNG",1
"177",765,4332728,"Binoc",2,1,3888,166,213,"Image2.PNG",1
"178",778,4495135,"Binoc",4,1,14708.6000003815,156,211,"Image2.PNG",1
"179",783,4476704,"Binoc",1,1,48421,164,211,"Image2.PNG",1
"180",792,4472380,"Binoc",2,1,31884.8999999762,163,206,"Image2.PNG",1
"181",800,4449420,"Binoc",2,1,20553.5,168.261682242991,207.728873239437,"Image2.PNG",1
"182",806,4447985,"Binoc",1,1,2868.29999995232,154,213,"Image2.PNG",1
"183",815,4445309,"Binoc",3,1,6731.30000007153,163,208,"Image2.PNG",1
"184",824,4429865,"Binoc",3,1,5120.7300000824,159,214,"Image2.PNG",1
"185",834,4408537,"Binoc",1,1,7769,168,214,"Image2.PNG",1
"186",844,4489139,"Binoc",1,1,4957.30000007153,154,209,"Image2.PNG",1
"187",856,4482002,"Binoc",1,1,12709,165,208,"Image2.PNG",1
"188",865,4460944,"Binoc",2,1,16914,158,218,"Image2.PNG",1
"189",878,4452506,"Binoc",4,1,17207,159,213,"Image2.PNG",1
"190",881,4450899,"Binoc",1,1,31626.3999998569,156,203,"Image2.PNG",1
"191",895,4449369,"Binoc",3,1,20617.5999999046,163,215,"Image2.PNG",1
"192",902,4449101,"Binoc",1,1,19479,177.275700934579,208.269230769231,"Image2.PNG",1
"193",2,4333147,"Mono",2,1,9548.29999995232,600.940438871473,255,"Image3.PNG",1
"194",11,4333590,"Mono",4,1,2848.60000000009,613,248,"Image3.PNG",1
"195",21,4334401,"Mono",3,1,4655.89999961853,609,251,"Image3.PNG",1
"196",29,4339358,"Mono",3,1,3042.59999996424,609,245,"Image3.PNG",1
"197",39,4381159,"Mono",4,1,5567.15000001714,611,254,"Image3.PNG",1
"198",45,4424285,"Mono",2,1,2399.30000001192,610,254,"Image3.PNG",1
"199",53,4449574,"Mono",1,1,4239.5,609,248,"Image3.PNG",1
"200",62,4449717,"Mono",1,1,5524.30000001192,330,251,"Image3.PNG",0
"201",75,4494914,"Mono",3,1,9792.70000000298,605,247,"Image3.PNG",1
"202",84,4495599,"Mono",3,1,15714.6000000089,607,257,"Image3.PNG",1
"203",91,4469128,"Mono",4,1,48366.8249999901,614,250,"Image3.PNG",1
"204",94,4454520,"Mono",2,1,9475.79999999888,606.0515625,245,"Image3.PNG",1
"205",102,4452039,"Mono",1,1,6718.10000000009,598,249,"Image3.PNG",1
"206",115,4449137,"Mono",4,1,18386.0999999046,626,249,"Image3.PNG",1
"207",121,4447916,"Mono",1,1,21373.7000000002,608,251,"Image3.PNG",1
"208",127,4443776,"Mono",1,1,3794,606,246,"Image3.PNG",1
"209",140,4404605,"Mono",3,1,11306.7,603,251,"Image3.PNG",1
"210",153,4384320,"Mono",4,1,12682.1999999285,614,250,"Image3.PNG",1
"211",161,4373538,"Mono",1,1,17090,608.952978056426,248,"Image3.PNG",1
"212",174,4336342,"Mono",4,1,21428,606,253,"Image3.PNG",1
"213",181,4450348,"Mono",2,1,3216.09999990463,601,243,"Image3.PNG",1
"214",192,4488838,"Mono",1,1,47791.099999994,606,253,"Image3.PNG",1
"215",205,4475413,"Mono",4,1,5964.90000000224,606,253,"Image3.PNG",1
"216",206,4448050,"Mono",1,1,19308,607,242,"Image3.PNG",1
"217",213,4372219,"Mono",1,1,16398.8999999985,604,243,"Image3.PNG",1
"218",226,4450899,"Mono",2,1,5178,597,244,"Image3.PNG",1
"219",237,4460944,"Mono",4,1,85328.599999994,603,251,"Image3.PNG",1
"220",244,4482002,"Mono",1,1,9283,611,249,"Image3.PNG",1
"221",254,4495135,"Mono",4,1,13176.1000003815,607,253,"Image3.PNG",1
"222",261,4491824,"Mono",2,1,8885.30000000447,538,276,"Image3.PNG",0
"223",268,4489139,"Mono",2,1,4062.39999997616,605,256,"Image3.PNG",1
"224",279,4476704,"Mono",4,1,22778,609,250,"Image3.PNG",1
"225",286,4472380,"Mono",3,1,36007.1000000238,618,250,"Image3.PNG",1
"226",294,4452506,"Mono",4,1,4231.00000000001,607,249,"Image3.PNG",1
"227",299,4449420,"Mono",2,1,13228.5,597,249,"Image3.PNG",1
"228",307,4449369,"Mono",2,1,3843.29999995232,615,255,"Image3.PNG",1
"229",315,4449101,"Mono",4,1,5130.40000000596,615,248,"Image3.PNG",1
"230",321,4447985,"Mono",2,1,14183.5,603,247,"Image3.PNG",1
"231",327,4445309,"Mono",1,1,10481.8000000715,613,251,"Image3.PNG",1
"232",335,4429865,"Mono",3,1,8372.77999985963,604,258,"Image3.PNG",1
"233",348,4408537,"Mono",4,1,4175.10000014305,588,257,"Image3.PNG",1
"234",357,4392148,"Mono",1,1,5558.20000001788,604,253,"Image3.PNG",1
"235",370,4379880,"Mono",2,1,4201,615,250,"Image3.PNG",1
"236",380,4354253,"Mono",2,1,6035.40000000037,607,249,"Image3.PNG",1
"237",391,4336146,"Mono",2,1,5214.5,604,258,"Image3.PNG",1
"238",403,4334877,"Mono",2,1,11870.7000000477,603,246,"Image3.PNG",1
"239",413,4333569,"Mono",2,1,10472,613,251,"Image3.PNG",1
"240",424,4332728,"Mono",2,1,3412,613,245,"Image3.PNG",1
"241",437,4336342,"Binoc",3,1,2795,603,252,"Image3.PNG",1
"242",448,4424285,"Binoc",2,1,3479.29999998212,599,250,"Image3.PNG",1
"243",462,4447916,"Binoc",4,1,27619.9000000004,604,246,"Image3.PNG",1
"244",466,4448050,"Binoc",1,1,1835,613,239,"Image3.PNG",0
"245",476,4449574,"Binoc",1,1,6575.69999980927,607,252,"Image3.PNG",1
"246",490,4450348,"Binoc",4,1,1868.5,590,257,"Image3.PNG",1
"247",499,4495599,"Binoc",1,1,1798.30000001192,602,236,"Image3.PNG",0
"248",511,4494914,"Binoc",2,1,12528.799999997,613,246,"Image3.PNG",1
"249",518,4488838,"Binoc",1,1,2563.20000000298,623,249,"Image3.PNG",1
"250",527,4475413,"Binoc",2,1,7910.09999999776,606,251,"Image3.PNG",1
"251",536,4469128,"Binoc",1,1,6074.89999999234,606,250,"Image3.PNG",1
"252",544,4449717,"Binoc",2,1,3271.79999999702,608,255,"Image3.PNG",1
"253",552,4449137,"Binoc",2,1,2958.29999995232,605,249,"Image3.PNG",1
"254",562,4443776,"Binoc",2,1,3105,616,248,"Image3.PNG",1
"255",573,4384320,"Binoc",2,1,4530.60000002384,593,258,"Image3.PNG",1
"256",585,4373538,"Binoc",3,1,4049.69999998808,607.951410658307,249,"Image3.PNG",1
"257",595,4339358,"Binoc",2,1,15048.3000000119,612,255,"Image3.PNG",1
"258",604,4334401,"Binoc",1,1,4222.30000019073,603,253,"Image3.PNG",1
"259",617,4333590,"Binoc",1,1,10990.5,604,254,"Image3.PNG",1
"260",630,4333147,"Binoc",3,1,6960.79999995232,597.935736677116,244,"Image3.PNG",1
"261",639,4381159,"Binoc",3,1,5233.61500003375,605,250,"Image3.PNG",1
"262",649,4454520,"Binoc",3,1,2415.09999999963,601.059375,245,"Image3.PNG",1
"263",658,4452039,"Binoc",3,1,24106.1000000001,603,255,"Image3.PNG",1
"264",668,4404605,"Binoc",3,1,9098.59999999963,599,249,"Image3.PNG",1
"265",678,4354253,"Binoc",1,1,2814.5,609,251,"Image3.PNG",1
"266",688,4491824,"Binoc",1,1,12422.3000000045,608,253,"Image3.PNG",1
"267",697,4392148,"Binoc",2,1,20496.5,610,246,"Image3.PNG",1
"268",709,4379880,"Binoc",2,1,6018,607,245,"Image3.PNG",1
"269",720,4372219,"Binoc",3,1,6342.89999999851,605,246,"Image3.PNG",1
"270",730,4336146,"Binoc",3,1,6387.19999999553,616,259,"Image3.PNG",1
"271",741,4334877,"Binoc",2,1,9045.90000009537,599,251,"Image3.PNG",1
"272",754,4333569,"Binoc",3,1,2942.5,601,248,"Image3.PNG",1
"273",766,4332728,"Binoc",3,1,2181,606,255,"Image3.PNG",1
"274",777,4495135,"Binoc",3,1,7012.80000019073,610,247,"Image3.PNG",1
"275",784,4476704,"Binoc",2,1,33891,596,248,"Image3.PNG",1
"276",791,4472380,"Binoc",1,1,17451.5999999046,614,234,"Image3.PNG",0
"277",802,4449420,"Binoc",4,1,18598.1000000238,605,251,"Image3.PNG",1
"278",809,4447985,"Binoc",4,1,14839.1000001431,605,250,"Image3.PNG",1
"279",814,4445309,"Binoc",2,1,12422.5,608,257,"Image3.PNG",1
"280",822,4429865,"Binoc",1,1,5580.57000022382,598,254,"Image3.PNG",1
"281",836,4408537,"Binoc",3,1,4882.40000009537,619,258,"Image3.PNG",1
"282",847,4489139,"Binoc",4,1,2369.39999997616,599,250,"Image3.PNG",1
"283",858,4482002,"Binoc",3,1,13535,612,247,"Image3.PNG",1
"284",867,4460944,"Binoc",4,1,7148.5,596,253,"Image3.PNG",1
"285",877,4452506,"Binoc",3,1,8222,608,253,"Image3.PNG",1
"286",883,4450899,"Binoc",3,1,23348.2000000477,607,255,"Image3.PNG",1
"287",894,4449369,"Binoc",2,1,7565.29999995232,606,248,"Image3.PNG",1
"288",905,4449101,"Binoc",4,1,73253,605,256,"Image3.PNG",1
"289",3,4333147,"Mono",3,1,9379,482,88,"Image4.PNG",1
"290",10,4333590,"Mono",3,1,5144.19999999995,480,92.6702127659574,"Image4.PNG",1
"291",19,4334401,"Mono",1,1,2279.2999997139,33,10,"Image4.PNG",0
"292",28,4339358,"Mono",2,1,2220.39999997616,479,89,"Image4.PNG",1
"293",37,4381159,"Mono",2,1,7014.94500006083,486,93,"Image4.PNG",1
"294",44,4424285,"Mono",1,1,9833,476,90,"Image4.PNG",1
"295",54,4449574,"Mono",2,1,10396.2999997139,471,91,"Image4.PNG",1
"296",65,4449717,"Mono",4,1,6678.30000001192,93,272,"Image4.PNG",0
"297",76,4494914,"Mono",4,1,66558.599999994,469,91,"Image4.PNG",1
"298",85,4495599,"Mono",4,1,26147.900000006,365,70,"Image4.PNG",0
"299",89,4469128,"Mono",2,1,8202.65999999538,477,87,"Image4.PNG",1
"300",95,4454520,"Mono",3,1,20662,614.040561622465,27,"Image4.PNG",0
"301",103,4452039,"Mono",2,1,21486.3,473,87,"Image4.PNG",1
"302",114,4449137,"Mono",3,1,5799.80000019073,489,90,"Image4.PNG",1
"303",123,4447916,"Mono",3,1,11629.1999999997,479,91,"Image4.PNG",1
"304",128,4443776,"Mono",2,1,4969,479,89,"Image4.PNG",1
"305",139,4404605,"Mono",2,1,6084.30000000005,491,95,"Image4.PNG",1
"306",151,4384320,"Mono",2,1,33444.2000000477,483,93,"Image4.PNG",1
"307",162,4373538,"Mono",2,1,3615.70000004768,476,87,"Image4.PNG",1
"308",172,4336342,"Mono",2,1,1559,486,83,"Image4.PNG",1
"309",183,4450348,"Mono",4,1,3804.90000009537,501,88,"Image4.PNG",1
"310",194,4488838,"Mono",3,1,2342,476,95,"Image4.PNG",1
"311",203,4475413,"Mono",2,1,17663.8999999985,476,91,"Image4.PNG",1
"312",209,4448050,"Mono",4,1,10930,485,82,"Image4.PNG",1
"313",214,4372219,"Mono",2,1,4749,485,86,"Image4.PNG",1
"314",228,4450899,"Mono",4,1,12067.3999998569,481,89,"Image4.PNG",1
"315",235,4460944,"Mono",2,1,12449.2999999821,488,87,"Image4.PNG",1
"316",247,4482002,"Mono",4,1,5781,482,88,"Image4.PNG",1
"317",252,4495135,"Mono",2,1,6062.80000019073,483,93,"Image4.PNG",1
"318",260,4491824,"Mono",1,1,4820.5,482,278,"Image4.PNG",0
"319",267,4489139,"Mono",1,1,3694.60000002384,478,89,"Image4.PNG",1
"320",278,4476704,"Mono",3,1,18832,469,89,"Image4.PNG",1
"321",285,4472380,"Mono",2,1,30183.0999999046,483,91,"Image4.PNG",1
"322",292,4452506,"Mono",2,1,50171,480,89,"Image4.PNG",1
"323",298,4449420,"Mono",1,1,4706,498,83,"Image4.PNG",1
"324",309,4449369,"Mono",4,1,58347.2000000477,480,87,"Image4.PNG",1
"325",314,4449101,"Mono",3,1,2173,488,93,"Image4.PNG",1
"326",320,4447985,"Mono",1,1,42361.1000001431,470.735524256651,87,"Image4.PNG",1
"327",328,4445309,"Mono",2,1,35171.3999999762,463,85,"Image4.PNG",1
"328",333,4429865,"Mono",1,1,2701.52000011876,479,90,"Image4.PNG",1
"329",347,4408537,"Mono",3,1,16406.2999999523,486,84,"Image4.PNG",1
"330",358,4392148,"Mono",2,1,3071.59999999404,477,89,"Image4.PNG",1
"331",372,4379880,"Mono",4,1,2638,479,89,"Image4.PNG",1
"332",379,4354253,"Mono",1,1,6186.69999999925,481,90,"Image4.PNG",1
"333",390,4336146,"Mono",1,1,1225.20000000298,476,95,"Image4.PNG",1
"334",404,4334877,"Mono",3,1,14839.8999999762,468,96,"Image4.PNG",1
"335",414,4333569,"Mono",3,1,10485,484,96,"Image4.PNG",1
"336",423,4332728,"Mono",1,1,4080,481,90,"Image4.PNG",1
"337",436,4336342,"Binoc",2,1,1415,482,93,"Image4.PNG",1
"338",449,4424285,"Binoc",3,1,6759.30000001192,458,95,"Image4.PNG",1
"339",460,4447916,"Binoc",2,1,26581.0000000005,476,92,"Image4.PNG",1
"340",467,4448050,"Binoc",2,1,2339,465,84,"Image4.PNG",1
"341",477,4449574,"Binoc",2,1,4795.19999980927,472,90,"Image4.PNG",1
"342",488,4450348,"Binoc",2,1,4383.09999990463,484,96,"Image4.PNG",1
"343",500,4495599,"Binoc",2,1,7659.30000001192,471,89,"Image4.PNG",1
"344",512,4494914,"Binoc",3,1,22022.5,474,90,"Image4.PNG",1
"345",521,4488838,"Binoc",4,1,1989.40000000596,469,92,"Image4.PNG",1
"346",529,4475413,"Binoc",4,1,78904.5999999978,482,90,"Image4.PNG",1
"347",539,4469128,"Binoc",4,1,20630.1650000096,475,93,"Image4.PNG",1
"348",546,4449717,"Binoc",4,1,14742.8999999911,481,91,"Image4.PNG",1
"349",551,4449137,"Binoc",1,1,1772.70000004768,483,88,"Image4.PNG",1
"350",563,4443776,"Binoc",3,1,3975.30000019073,496,84,"Image4.PNG",1
"351",572,4384320,"Binoc",1,1,4041.89999997616,503,90,"Image4.PNG",1
"352",584,4373538,"Binoc",2,1,4960.10000002384,475,90,"Image4.PNG",1
"353",594,4339358,"Binoc",1,1,10129.2000000477,489,93,"Image4.PNG",1
"354",605,4334401,"Binoc",2,1,6009.59999990463,481,93,"Image4.PNG",1
"355",618,4333590,"Binoc",2,1,15186.6000000001,485,86.6914893617021,"Image4.PNG",1
"356",628,4333147,"Binoc",1,1,6431.90000009537,483,87,"Image4.PNG",1
"357",637,4381159,"Binoc",1,1,6187.86499998532,483,87,"Image4.PNG",1
"358",650,4454520,"Binoc",4,1,15124.0999999996,488.237129485179,93,"Image4.PNG",1
"359",656,4452039,"Binoc",1,1,4587.80000000028,471,88,"Image4.PNG",1
"360",666,4404605,"Binoc",1,1,4380.39999999991,463,93,"Image4.PNG",1
"361",681,4354253,"Binoc",4,1,1507.79999999888,483,87,"Image4.PNG",1
"362",689,4491824,"Binoc",2,1,14731.299999997,31,262,"Image4.PNG",0
"363",699,4392148,"Binoc",4,1,6498.09999999404,477,96,"Image4.PNG",1
"364",710,4379880,"Binoc",3,1,12693,423,76,"Image4.PNG",0
"365",719,4372219,"Binoc",2,1,1640.60000000149,480,92,"Image4.PNG",1
"366",728,4336146,"Binoc",1,1,1821.59999999404,461,89,"Image4.PNG",1
"367",740,4334877,"Binoc",1,1,6229.80000007153,473,89,"Image4.PNG",1
"368",755,4333569,"Binoc",4,1,9787.5,486,87,"Image4.PNG",1
"369",767,4332728,"Binoc",4,1,3647,484,93,"Image4.PNG",1
"370",775,4495135,"Binoc",1,1,3685.39999961853,480,85,"Image4.PNG",1
"371",786,4476704,"Binoc",4,1,23020,486,92,"Image4.PNG",1
"372",794,4472380,"Binoc",4,1,18992.8999999762,475,93,"Image4.PNG",1
"373",799,4449420,"Binoc",1,1,27491.7000000179,485,86,"Image4.PNG",1
"374",807,4447985,"Binoc",2,1,5782,465.727699530516,92,"Image4.PNG",1
"375",813,4445309,"Binoc",1,1,6082.70000004768,484,89,"Image4.PNG",1
"376",825,4429865,"Binoc",4,1,3281.66499966756,481,97,"Image4.PNG",1
"377",835,4408537,"Binoc",2,1,8286.40000009537,476,91,"Image4.PNG",1
"378",846,4489139,"Binoc",3,1,2260.10000002384,487,93,"Image4.PNG",1
"379",857,4482002,"Binoc",2,1,24317,480,86,"Image4.PNG",1
"380",864,4460944,"Binoc",1,1,2461,486,91,"Image4.PNG",1
"381",876,4452506,"Binoc",2,1,2798,476,89,"Image4.PNG",1
"382",884,4450899,"Binoc",4,1,15643.1999998093,487,91,"Image4.PNG",1
"383",896,4449369,"Binoc",4,1,5111.79999995232,477,93,"Image4.PNG",1
"384",904,4449101,"Binoc",3,1,26808.7000000179,481,92,"Image4.PNG",1
"385",7,4333147,"Mono",2,1,5849.89999985695,416,151,"Image5_three.PNG",1
"386",12,4333590,"Mono",1,1,2102.30000000005,98,172,"Image5_three.PNG",1
"387",13,4333590,"Mono",1,2,5734.69999999995,358,32,"Image5_three.PNG",1
"388",14,4333590,"Mono",1,3,6925.30000000005,415,159,"Image5_three.PNG",1
"389",25,4334401,"Mono",2,1,2972.5,357,31,"Image5_three.PNG",1
"390",26,4334401,"Mono",2,2,6092.90000009537,99,172,"Image5_three.PNG",1
"391",31,4339358,"Mono",1,1,3478.59999996424,100,169,"Image5_three.PNG",1
"392",32,4339358,"Mono",1,2,8416.19999998808,349,27,"Image5_three.PNG",1
"393",43,4381159,"Mono",2,1,3860.03000009805,91,166,"Image5_three.PNG",1
"394",51,4424285,"Mono",2,1,5064,426,151,"Image5_three.PNG",1
"395",52,4424285,"Mono",2,2,7481.5,103,173,"Image5_three.PNG",1
"396",60,4449574,"Mono",2,1,4526.7999997139,360,29,"Image5_three.PNG",1
"397",61,4449574,"Mono",2,2,7882.2999997139,413,151,"Image5_three.PNG",1
"398",66,4449717,"Mono",1,1,4377.5,99,170,"Image5_three.PNG",1
"399",67,4449717,"Mono",1,2,7082.09999999404,413,149,"Image5_three.PNG",1
"400",68,4449717,"Mono",1,3,8916.90000000596,354,35,"Image5_three.PNG",1
"401",77,4494914,"Mono",1,1,2926.20000000298,95,175,"Image5_three.PNG",1
"402",78,4494914,"Mono",1,2,7677.10000000894,354,32,"Image5_three.PNG",1
"403",79,4494914,"Mono",1,3,9677.20000000298,415,150,"Image5_three.PNG",1
"404",97,4454520,"Mono",1,1,4337.40000000037,104.796511627907,172,"Image5_three.PNG",1
"405",98,4454520,"Mono",1,2,9179,345.329457364341,29,"Image5_three.PNG",1
"406",106,4452039,"Mono",1,1,5019.69999999995,342,27,"Image5_three.PNG",1
"407",107,4452039,"Mono",1,2,6769.69999999995,422,147,"Image5_three.PNG",1
"408",119,4449137,"Mono",2,1,2822.69999980927,98,170,"Image5_three.PNG",1
"409",120,4449137,"Mono",2,2,9554.79999995232,367,30,"Image5_three.PNG",1
"410",131,4443776,"Mono",1,1,3668.59999990463,110,171,"Image5_three.PNG",1
"411",132,4443776,"Mono",1,2,5602.40000009537,420,151,"Image5_three.PNG",1
"412",142,4404605,"Mono",1,1,1796,419,155,"Image5_three.PNG",1
"413",143,4404605,"Mono",1,2,4357.19999999972,95,174,"Image5_three.PNG",1
"414",144,4404605,"Mono",1,3,5798.09999999963,338,26,"Image5_three.PNG",1
"415",158,4384320,"Mono",2,1,2089.39999997616,112,169,"Image5_three.PNG",1
"416",159,4384320,"Mono",2,2,7999.29999995232,353,32,"Image5_three.PNG",1
"417",160,4384320,"Mono",2,3,9219.5,421,154,"Image5_three.PNG",1
"418",165,4373538,"Mono",1,1,1963.89999997616,105,168,"Image5_three.PNG",1
"419",166,4373538,"Mono",1,2,4213.30000001192,425,148,"Image5_three.PNG",1
"420",178,4336342,"Mono",2,1,2994,111,168,"Image5_three.PNG",1
"421",179,4336342,"Mono",2,2,8271.99999999999,353,29,"Image5_three.PNG",1
"422",184,4450348,"Mono",1,1,2565.90000009537,351,30,"Image5_three.PNG",1
"423",185,4450348,"Mono",1,2,4192.20000004768,420,148,"Image5_three.PNG",1
"424",186,4450348,"Mono",1,3,7893.5,115,172,"Image5_three.PNG",1
"425",199,4488838,"Mono",2,1,3941.60000000894,421,154,"Image5_three.PNG",1
"426",200,4488838,"Mono",2,2,5887.5,351,32,"Image5_three.PNG",1
"427",201,4488838,"Mono",2,3,9425.20000000298,97,173,"Image5_three.PNG",1
"428",210,4448050,"Mono",1,1,4021,413,151,"Image5_three.PNG",1
"429",217,4372219,"Mono",1,1,2490.79999999702,413,152,"Image5_three.PNG",1
"430",218,4372219,"Mono",1,2,5639.69999999553,353,32,"Image5_three.PNG",1
"431",219,4372219,"Mono",1,3,7711.19999999553,103,174,"Image5_three.PNG",1
"432",229,4450899,"Mono",1,1,1717.10000014305,344,31,"Image5_three.PNG",1
"433",230,4450899,"Mono",1,2,6459,422,154,"Image5_three.PNG",1
"434",231,4450899,"Mono",1,3,8520.90000009537,98,169,"Image5_three.PNG",1
"435",238,4460944,"Mono",1,1,2501,356,36,"Image5_three.PNG",1
"436",239,4460944,"Mono",1,2,5293.69999998808,98,175,"Image5_three.PNG",1
"437",250,4482002,"Mono",2,1,3315,422,155,"Image5_three.PNG",1
"438",258,4495135,"Mono",2,1,4681.0999994278,418,151,"Image5_three.PNG",1
"439",259,4495135,"Mono",2,2,6717,352,31,"Image5_three.PNG",1
"440",264,4491824,"Mono",1,1,9195.10000000149,168,78,"Image5_three.PNG",0
"441",271,4489139,"Mono",1,1,2412.89999997616,87,176,"Image5_three.PNG",1
"442",272,4489139,"Mono",1,2,8918.19999992847,420,154,"Image5_three.PNG",1
"443",283,4476704,"Mono",2,1,3702,430,143,"Image5_three.PNG",1
"444",288,4472380,"Mono",1,1,5821.79999995232,89,173,"Image5_three.PNG",1
"445",297,4452506,"Mono",2,1,6549.00000000001,98,171,"Image5_three.PNG",1
"446",302,4449420,"Mono",1,1,3743.90000000596,359.698443579767,32.1441441441441,"Image5_three.PNG",1
"447",303,4449420,"Mono",1,2,6771.30000001192,98.1906614785992,174.783783783784,"Image5_three.PNG",1
"448",311,4449369,"Mono",2,1,4021.80000019073,415,148,"Image5_three.PNG",1
"449",316,4449101,"Mono",1,1,5457.59999999404,109.212062256809,172.774774774775,"Image5_three.PNG",1
"450",326,4447985,"Mono",2,1,3714.30000019073,413.803501945525,145,"Image5_three.PNG",1
"451",331,4445309,"Mono",1,1,6184.09999990463,424,147,"Image5_three.PNG",1
"452",337,4429865,"Mono",1,1,1801.95999983698,93,175,"Image5_three.PNG",1
"453",338,4429865,"Mono",1,2,3433.6000001058,421,151,"Image5_three.PNG",1
"454",339,4429865,"Mono",1,3,5228.31499995664,372,31,"Image5_three.PNG",1
"455",349,4408537,"Mono",1,1,2032.89999985695,355,30,"Image5_three.PNG",1
"456",350,4408537,"Mono",1,2,2767.29999995232,414,147,"Image5_three.PNG",1
"457",351,4408537,"Mono",1,3,3514.89999985695,109,167,"Image5_three.PNG",1
"458",361,4392148,"Mono",1,1,1549.80000001192,356,34,"Image5_three.PNG",1
"459",362,4392148,"Mono",1,2,3622.5,414,155,"Image5_three.PNG",1
"460",363,4392148,"Mono",1,3,7119.59999999404,102,179,"Image5_three.PNG",1
"461",377,4379880,"Mono",2,1,1667,106,170,"Image5_three.PNG",1
"462",378,4379880,"Mono",2,2,6543,356,31,"Image5_three.PNG",1
"463",387,4354253,"Mono",2,1,1391.40000000037,95,166,"Image5_three.PNG",1
"464",388,4354253,"Mono",2,2,4347.5,354,30,"Image5_three.PNG",1
"465",389,4354253,"Mono",2,3,6838.09999999963,414,144,"Image5_three.PNG",1
"466",399,4336146,"Mono",2,1,1710,101,167,"Image5_three.PNG",1
"467",400,4336146,"Mono",2,2,4200.29999999702,418,152,"Image5_three.PNG",1
"468",401,4336146,"Mono",2,3,5476.19999999553,370,27,"Image5_three.PNG",1
"469",406,4334877,"Mono",1,1,5999.10000002384,361,30,"Image5_three.PNG",1
"470",407,4334877,"Mono",1,2,7382.60000002384,428,148,"Image5_three.PNG",1
"471",416,4333569,"Mono",1,1,2602.80000019073,350,33,"Image5_three.PNG",1
"472",417,4333569,"Mono",1,2,4178.90000009537,417,153,"Image5_three.PNG",1
"473",418,4333569,"Mono",1,3,6795.90000009537,113,169,"Image5_three.PNG",1
"474",432,4332728,"Mono",2,1,1742,355,32,"Image5_three.PNG",1
"475",433,4332728,"Mono",2,2,2715,420,155,"Image5_three.PNG",1
"476",434,4332728,"Mono",2,3,5106,98,172,"Image5_three.PNG",1
"477",444,4336342,"Binoc",2,1,2210,101,168,"Image5_three.PNG",1
"478",445,4336342,"Binoc",2,2,6022,415,153,"Image5_three.PNG",1
"479",446,4336342,"Binoc",2,3,6800,355,26,"Image5_three.PNG",1
"480",451,4424285,"Binoc",1,1,2245.10000002384,362,35,"Image5_three.PNG",1
"481",452,4424285,"Binoc",1,2,5636.10000002384,109,168,"Image5_three.PNG",1
"482",453,4424285,"Binoc",1,3,6935.5,420,146,"Image5_three.PNG",1
"483",463,4447916,"Binoc",1,1,7250.5,422,146,"Image5_three.PNG",1
"484",470,4448050,"Binoc",1,1,4087,424,144,"Image5_three.PNG",1
"485",471,4448050,"Binoc",1,2,8394,105,168,"Image5_three.PNG",1
"486",480,4449574,"Binoc",1,1,1641.09999990463,358,30,"Image5_three.PNG",1
"487",481,4449574,"Binoc",1,2,3617.40000009537,413,150,"Image5_three.PNG",1
"488",482,4449574,"Binoc",1,3,5621.5,108,170,"Image5_three.PNG",1
"489",491,4450348,"Binoc",1,1,1380.30000019073,354,30,"Image5_three.PNG",1
"490",492,4450348,"Binoc",1,2,4511.90000009537,398,147,"Image5_three.PNG",1
"491",493,4450348,"Binoc",1,3,5391.70000004768,88,175,"Image5_three.PNG",1
"492",508,4495599,"Binoc",2,1,3140.10000002384,419,153,"Image5_three.PNG",1
"493",509,4495599,"Binoc",2,2,5919.5,356,30,"Image5_three.PNG",1
"494",516,4494914,"Binoc",2,1,2024.29999999702,101,172,"Image5_three.PNG",1
"495",517,4494914,"Binoc",2,2,4847.29999999702,429,151,"Image5_three.PNG",1
"496",522,4488838,"Binoc",1,1,2084.29999999702,366,30,"Image5_three.PNG",1
"497",530,4475413,"Binoc",1,1,2183.30000000075,355,29,"Image5_three.PNG",1
"498",531,4475413,"Binoc",1,2,3855.39999999851,414,150,"Image5_three.PNG",1
"499",532,4475413,"Binoc",1,3,6031.80000000075,94,165,"Image5_three.PNG",1
"500",542,4469128,"Binoc",2,1,4239.40000000584,102,175,"Image5_three.PNG",1
"501",550,4449717,"Binoc",2,1,2120.59999999404,96,170,"Image5_three.PNG",1
"502",555,4449137,"Binoc",1,1,4341.90000009537,115,167,"Image5_three.PNG",1
"503",556,4449137,"Binoc",1,2,8118.20000004768,429,152,"Image5_three.PNG",1
"504",569,4443776,"Binoc",2,1,3798.80000019073,116,166,"Image5_three.PNG",1
"505",570,4443776,"Binoc",2,2,5982.90000009537,431,150,"Image5_three.PNG",1
"506",571,4443776,"Binoc",2,3,7520.7000002861,356,28,"Image5_three.PNG",1
"507",580,4384320,"Binoc",2,1,2497.5,422,149,"Image5_three.PNG",1
"508",581,4384320,"Binoc",2,2,3407.39999997616,345,33,"Image5_three.PNG",1
"509",582,4384320,"Binoc",2,3,8403.60000002384,104,167,"Image5_three.PNG",1
"510",591,4373538,"Binoc",2,1,2447.09999996424,102,168,"Image5_three.PNG",1
"511",592,4373538,"Binoc",2,2,5624.39999997616,354,33,"Image5_three.PNG",1
"512",593,4373538,"Binoc",2,3,6808.30000001192,428,148,"Image5_three.PNG",1
"513",598,4339358,"Binoc",1,1,3566.80000001192,93,165,"Image5_three.PNG",1
"514",599,4339358,"Binoc",1,2,6919,417,147,"Image5_three.PNG",1
"515",608,4334401,"Binoc",1,1,1856.90000009537,91,169,"Image5_three.PNG",1
"516",609,4334401,"Binoc",1,2,9457,408,143,"Image5_three.PNG",1
"517",610,4334401,"Binoc",1,3,9746.19999980927,419,154,"Image5_three.PNG",1
"518",621,4333590,"Binoc",1,1,2184.39999999991,99,170,"Image5_three.PNG",1
"519",622,4333590,"Binoc",1,2,5844.69999999972,418,148,"Image5_three.PNG",1
"520",623,4333590,"Binoc",1,3,7167.09999999963,347,27,"Image5_three.PNG",1
"521",635,4333147,"Binoc",2,1,5369.20000004768,419,148,"Image5_three.PNG",1
"522",636,4333147,"Binoc",2,2,9170,116,170,"Image5_three.PNG",1
"523",646,4381159,"Binoc",2,1,2010.17500006128,99,170,"Image5_three.PNG",1
"524",654,4454520,"Binoc",2,1,3136.79999999888,103.798449612403,162,"Image5_three.PNG",1
"525",655,4454520,"Binoc",2,2,8321.29999999888,338.343023255814,34,"Image5_three.PNG",1
"526",663,4452039,"Binoc",2,1,2267.29999999981,361,30,"Image5_three.PNG",1
"527",664,4452039,"Binoc",2,2,3818.79999999981,428,146,"Image5_three.PNG",1
"528",665,4452039,"Binoc",2,3,7919.19999999972,103,170,"Image5_three.PNG",1
"529",670,4404605,"Binoc",1,1,1379.80000000028,349,34,"Image5_three.PNG",1
"530",671,4404605,"Binoc",1,2,2670.20000000019,410,150,"Image5_three.PNG",1
"531",672,4404605,"Binoc",1,3,4677.60000000009,110,169,"Image5_three.PNG",1
"532",686,4354253,"Binoc",2,1,1835.20000000112,101,172,"Image5_three.PNG",1
"533",687,4354253,"Binoc",2,2,9686.90000000037,353,33,"Image5_three.PNG",1
"534",692,4491824,"Binoc",1,1,3851.30000000447,362,25,"Image5_three.PNG",1
"535",693,4491824,"Binoc",1,2,6843.40000000596,349,32,"Image5_three.PNG",1
"536",705,4392148,"Binoc",2,1,2838.89999997616,100,165,"Image5_three.PNG",1
"537",706,4392148,"Binoc",2,2,4515.79999998212,416,152,"Image5_three.PNG",1
"538",707,4392148,"Binoc",2,3,6704.39999997616,355,33,"Image5_three.PNG",1
"539",715,4379880,"Binoc",2,1,5151,102,172,"Image5_three.PNG",1
"540",716,4379880,"Binoc",2,2,8084,422,155,"Image5_three.PNG",1
"541",717,4379880,"Binoc",2,3,9363,354,29,"Image5_three.PNG",1
"542",726,4372219,"Binoc",2,1,4168.20000000298,413,150,"Image5_three.PNG",1
"543",727,4372219,"Binoc",2,2,8531,100,166,"Image5_three.PNG",1
"544",737,4336146,"Binoc",2,1,1313.60000000149,361,32,"Image5_three.PNG",1
"545",738,4336146,"Binoc",2,2,2057.30000000447,420,148,"Image5_three.PNG",1
"546",739,4336146,"Binoc",2,3,3465.89999999851,113,173,"Image5_three.PNG",1
"547",744,4334877,"Binoc",1,1,3301,372,24,"Image5_three.PNG",1
"548",745,4334877,"Binoc",1,2,4164.70000004768,358,28,"Image5_three.PNG",1
"549",746,4334877,"Binoc",1,3,6490.60000002384,91,170,"Image5_three.PNG",1
"550",756,4333569,"Binoc",1,1,3446.5,358,32,"Image5_three.PNG",1
"551",757,4333569,"Binoc",1,2,6418.80000019073,421,151,"Image5_three.PNG",1
"552",758,4333569,"Binoc",1,3,7911.30000019073,99,177,"Image5_three.PNG",1
"553",768,4332728,"Binoc",1,1,1993,414,148,"Image5_three.PNG",1
"554",769,4332728,"Binoc",1,2,2819,99,168,"Image5_three.PNG",1
"555",779,4495135,"Binoc",1,1,2622.89999961853,355,29,"Image5_three.PNG",1
"556",780,4495135,"Binoc",1,2,5646.89999961853,95,171,"Image5_three.PNG",1
"557",787,4476704,"Binoc",1,1,4594,109,172,"Image5_three.PNG",1
"558",798,4472380,"Binoc",2,1,3623.60000002384,95,170,"Image5_three.PNG",1
"559",805,4449420,"Binoc",2,1,4605.80000001192,416.809338521401,146.657657657658,"Image5_three.PNG",1
"560",810,4447985,"Binoc",1,1,4356.20000004768,87.1692607003891,165,"Image5_three.PNG",1
"561",820,4445309,"Binoc",2,1,2750.20000004768,364,34,"Image5_three.PNG",1
"562",821,4445309,"Binoc",2,2,7876.39999997616,425,145,"Image5_three.PNG",1
"563",831,4429865,"Binoc",2,1,1741.16500001401,96,170,"Image5_three.PNG",1
"564",832,4429865,"Binoc",2,2,4934.93999959901,362,32,"Image5_three.PNG",1
"565",833,4429865,"Binoc",2,3,6265.33999992535,431,154,"Image5_three.PNG",1
"566",838,4408537,"Binoc",1,1,2317.70000004768,102,168,"Image5_three.PNG",1
"567",839,4408537,"Binoc",1,2,3336.30000019073,419,144,"Image5_three.PNG",1
"568",840,4408537,"Binoc",1,3,9966.5,364,39,"Image5_three.PNG",1
"569",848,4489139,"Binoc",1,1,1359.10000002384,368,27,"Image5_three.PNG",1
"570",849,4489139,"Binoc",1,2,2869.30000007153,86,175,"Image5_three.PNG",1
"571",850,4489139,"Binoc",1,3,6355.10000002384,412,150,"Image5_three.PNG",1
"572",860,4482002,"Binoc",1,1,4178,102,170,"Image5_three.PNG",1
"573",861,4482002,"Binoc",1,2,7690,352,31,"Image5_three.PNG",1
"574",862,4482002,"Binoc",1,3,9158,420,145,"Image5_three.PNG",1
"575",868,4460944,"Binoc",1,1,2481.60000002384,102,172,"Image5_three.PNG",1
"576",869,4460944,"Binoc",1,2,4649.70000001788,356,30,"Image5_three.PNG",1
"577",870,4460944,"Binoc",1,3,6583.60000002384,410,151,"Image5_three.PNG",1
"578",879,4452506,"Binoc",2,1,3183,97,170,"Image5_three.PNG",1
"579",880,4452506,"Binoc",2,2,9449.00000000001,357,30,"Image5_three.PNG",1
"580",890,4450899,"Binoc",2,1,2147.69999980927,350,33,"Image5_three.PNG",1
"581",891,4450899,"Binoc",2,2,3894.19999980927,98,176,"Image5_three.PNG",1
"582",892,4450899,"Binoc",2,3,5086.69999980927,420,151,"Image5_three.PNG",1
"583",897,4449369,"Binoc",1,1,7214.5,410,146,"Image5_three.PNG",1
"584",5,4333147,"Mono",1,1,3282.40000009537,102,174,"Image6_many.PNG",1
"585",6,4333147,"Mono",1,2,6416.29999995232,176,49,"Image6_many.PNG",1
"586",15,4333590,"Mono",2,1,1749.40000000014,420,147,"Image6_many.PNG",1
"587",16,4333590,"Mono",2,2,2856,94,176,"Image6_many.PNG",1
"588",17,4333590,"Mono",2,3,4171.19999999995,158,53,"Image6_many.PNG",1
"589",18,4333590,"Mono",2,4,7359.80000000005,497,89,"Image6_many.PNG",1
"590",23,4334401,"Mono",1,1,4087.59999990463,355,33,"Image6_many.PNG",1
"591",24,4334401,"Mono",1,2,9328.59999990463,481,94,"Image6_many.PNG",1
"592",33,4339358,"Mono",2,1,2551.10000002384,342,29,"Image6_many.PNG",1
"593",34,4339358,"Mono",2,2,4750.89999997616,483,95,"Image6_many.PNG",1
"594",35,4339358,"Mono",2,3,6353,409,150,"Image6_many.PNG",1
"595",40,4381159,"Mono",1,1,2019.09499999601,169,54,"Image6_many.PNG",1
"596",41,4381159,"Mono",1,2,3124.1549999686,108,171,"Image6_many.PNG",1
"597",42,4381159,"Mono",1,3,5778.69499998633,483,95,"Image6_many.PNG",1
"598",48,4424285,"Mono",1,1,2010.69999998808,357,35,"Image6_many.PNG",1
"599",49,4424285,"Mono",1,2,3108.69999998808,167,57,"Image6_many.PNG",1
"600",50,4424285,"Mono",1,3,4076.09999999404,475,89,"Image6_many.PNG",1
"601",57,4449574,"Mono",1,1,2153.69999980927,356,35,"Image6_many.PNG",1
"602",58,4449574,"Mono",1,2,3458.5,477,92,"Image6_many.PNG",1
"603",59,4449574,"Mono",1,3,5351.40000009537,103,172,"Image6_many.PNG",1
"604",69,4449717,"Mono",2,1,3426.29999999702,105,163,"Image6_many.PNG",1
"605",70,4449717,"Mono",2,2,4862.5,97,175,"Image6_many.PNG",1
"606",71,4449717,"Mono",2,3,7000.69999998808,163,52,"Image6_many.PNG",1
"607",72,4449717,"Mono",2,4,9800.39999999106,356,215,"Image6_many.PNG",0
"608",80,4494914,"Mono",2,1,2446.20000000298,87,172,"Image6_many.PNG",1
"609",81,4494914,"Mono",2,2,9280.5,344,34,"Image6_many.PNG",1
"610",86,4495599,"Mono",2,1,5264,424,150,"Image6_many.PNG",1
"611",87,4495599,"Mono",2,2,8495.59999999404,364,34,"Image6_many.PNG",1
"612",92,4469128,"Mono",2,1,7225.38999999233,343,31,"Image6_many.PNG",1
"613",99,4454520,"Mono",2,1,2953.69999999925,150,48.2152466367713,"Image6_many.PNG",1
"614",100,4454520,"Mono",2,2,4439.79999999888,375,28.1255605381166,"Image6_many.PNG",1
"615",101,4454520,"Mono",2,3,5853.29999999888,466,92.4125560538117,"Image6_many.PNG",1
"616",108,4452039,"Mono",2,1,3073.30000000005,151,48,"Image6_many.PNG",1
"617",109,4452039,"Mono",2,2,5346.69999999995,105,175,"Image6_many.PNG",1
"618",110,4452039,"Mono",2,3,7440.30000000005,430,150,"Image6_many.PNG",1
"619",111,4452039,"Mono",2,4,9253.89999999991,492,90,"Image6_many.PNG",1
"620",116,4449137,"Mono",1,1,1729.39999985695,485,92,"Image6_many.PNG",1
"621",117,4449137,"Mono",1,2,3641.59999990463,371,30,"Image6_many.PNG",1
"622",118,4449137,"Mono",1,3,5469.19999980927,110,172,"Image6_many.PNG",1
"623",125,4447916,"Mono",2,1,3898.60000000009,96,172,"Image6_many.PNG",1
"624",126,4447916,"Mono",2,2,9366,415,153,"Image6_many.PNG",1
"625",133,4443776,"Mono",2,1,1819.09999990463,344,26,"Image6_many.PNG",1
"626",134,4443776,"Mono",2,2,3519.90000009537,96,171,"Image6_many.PNG",1
"627",135,4443776,"Mono",2,3,6144.5,173,47,"Image6_many.PNG",1
"628",136,4443776,"Mono",2,4,8134.69999980927,429,153,"Image6_many.PNG",1
"629",137,4443776,"Mono",2,5,9592.40000009537,487,88,"Image6_many.PNG",1
"630",145,4404605,"Mono",2,1,1145.79999999981,481,90,"Image6_many.PNG",1
"631",146,4404605,"Mono",2,2,1770.20000000019,363,29,"Image6_many.PNG",1
"632",147,4404605,"Mono",2,3,3138.70000000019,161,49,"Image6_many.PNG",1
"633",148,4404605,"Mono",2,4,4197.20000000019,104,171,"Image6_many.PNG",1
"634",149,4404605,"Mono",2,5,7525.60000000009,413,156,"Image6_many.PNG",1
"635",154,4384320,"Mono",1,1,2663.69999992847,104,173,"Image6_many.PNG",1
"636",155,4384320,"Mono",1,2,3953.89999997616,177,53,"Image6_many.PNG",1
"637",156,4384320,"Mono",1,3,8093.79999995232,354,29,"Image6_many.PNG",1
"638",157,4384320,"Mono",1,4,9979.60000002384,431,152,"Image6_many.PNG",1
"639",167,4373538,"Mono",2,1,2284,98,170,"Image6_many.PNG",1
"640",168,4373538,"Mono",2,2,3326,167,46,"Image6_many.PNG",1
"641",169,4373538,"Mono",2,3,6614.30000001192,415,146,"Image6_many.PNG",1
"642",170,4373538,"Mono",2,4,7888.20000004768,356,31,"Image6_many.PNG",1
"643",175,4336342,"Mono",1,1,3563,477,89,"Image6_many.PNG",1
"644",176,4336342,"Mono",1,2,5414,420,156,"Image6_many.PNG",1
"645",177,4336342,"Mono",1,3,6631,367,36,"Image6_many.PNG",1
"646",187,4450348,"Mono",2,1,2269.20000004768,172,51,"Image6_many.PNG",1
"647",188,4450348,"Mono",2,2,3684.70000004768,349,31,"Image6_many.PNG",1
"648",189,4450348,"Mono",2,3,4765.90000009537,504,93,"Image6_many.PNG",1
"649",190,4450348,"Mono",2,4,5698.10000014305,431,149,"Image6_many.PNG",1
"650",191,4450348,"Mono",2,5,8634.5,93,173,"Image6_many.PNG",1
"651",196,4488838,"Mono",1,1,2068.30000001192,352,31,"Image6_many.PNG",1
"652",197,4488838,"Mono",1,2,4278.30000001192,166,51,"Image6_many.PNG",1
"653",198,4488838,"Mono",1,3,5752.10000000894,94,166,"Image6_many.PNG",1
"654",211,4448050,"Mono",2,1,5620,490,86,"Image6_many.PNG",1
"655",212,4448050,"Mono",2,2,7920,411,154,"Image6_many.PNG",1
"656",220,4372219,"Mono",2,1,1613.20000000298,98,174,"Image6_many.PNG",1
"657",221,4372219,"Mono",2,2,4642.70000000298,160,50,"Image6_many.PNG",1
"658",222,4372219,"Mono",2,3,5600.20000000298,354,30,"Image6_many.PNG",1
"659",223,4372219,"Mono",2,4,7451.10000000149,480,90,"Image6_many.PNG",1
"660",224,4372219,"Mono",2,5,8164,413,156,"Image6_many.PNG",1
"661",232,4450899,"Mono",2,1,1694.5,350,29,"Image6_many.PNG",1
"662",233,4450899,"Mono",2,2,6231.70000004768,100,175,"Image6_many.PNG",1
"663",240,4460944,"Mono",2,1,1967.39999997616,157,58,"Image6_many.PNG",1
"664",241,4460944,"Mono",2,2,4725.5,97,176,"Image6_many.PNG",1
"665",242,4460944,"Mono",2,3,7537.5,353,35,"Image6_many.PNG",1
"666",243,4460944,"Mono",2,4,9319.39999997616,493,85,"Image6_many.PNG",1
"667",248,4482002,"Mono",1,1,4536,422,151,"Image6_many.PNG",1
"668",249,4482002,"Mono",1,2,7162,353,28,"Image6_many.PNG",1
"669",255,4495135,"Mono",1,1,3373,97,170,"Image6_many.PNG",1
"670",256,4495135,"Mono",1,2,5217.19999980927,160,53,"Image6_many.PNG",1
"671",257,4495135,"Mono",1,3,6893.30000019073,480,88,"Image6_many.PNG",1
"672",265,4491824,"Mono",2,1,4129.90000000596,99,217,"Image6_many.PNG",0
"673",266,4491824,"Mono",2,2,6315.40000000596,483,51,"Image6_many.PNG",0
"674",273,4489139,"Mono",2,1,3782,170,47,"Image6_many.PNG",1
"675",274,4489139,"Mono",2,2,6193.5,345,34,"Image6_many.PNG",1
"676",275,4489139,"Mono",2,3,7929.20000004768,411,145,"Image6_many.PNG",1
"677",280,4476704,"Mono",1,1,3290,110,170,"Image6_many.PNG",1
"678",281,4476704,"Mono",1,2,5909,488,91,"Image6_many.PNG",1
"679",282,4476704,"Mono",1,3,6889,417,151,"Image6_many.PNG",1
"680",289,4472380,"Mono",2,1,6292.09999990463,97,174,"Image6_many.PNG",1
"681",290,4472380,"Mono",2,2,9298.09999990463,158,53,"Image6_many.PNG",1
"682",295,4452506,"Mono",1,1,3899,480,87,"Image6_many.PNG",1
"683",296,4452506,"Mono",1,2,6632,413,149,"Image6_many.PNG",1
"684",304,4449420,"Mono",2,1,2678.59999999404,429.836257309942,153,"Image6_many.PNG",1
"685",305,4449420,"Mono",2,2,7589.90000000596,180.350877192982,54,"Image6_many.PNG",1
"686",310,4449369,"Mono",1,1,3017.40000009537,479,95,"Image6_many.PNG",1
"687",317,4449101,"Mono",2,1,2990.79999998212,105.204678362573,171,"Image6_many.PNG",1
"688",318,4449101,"Mono",2,2,6734.69999998808,354.690058479532,28,"Image6_many.PNG",1
"689",319,4449101,"Mono",2,3,7990.90000000596,505.98440545809,94,"Image6_many.PNG",1
"690",324,4447985,"Mono",1,1,2599.5,486,86.6133333333333,"Image6_many.PNG",1
"691",325,4447985,"Mono",1,2,4311.79999995232,430,154.311111111111,"Image6_many.PNG",1
"692",332,4445309,"Mono",2,1,3101.20000004768,163,57,"Image6_many.PNG",1
"693",340,4429865,"Mono",2,1,1075.25999983773,164,45,"Image6_many.PNG",1
"694",341,4429865,"Mono",2,2,2037.3899997212,99,170,"Image6_many.PNG",1
"695",342,4429865,"Mono",2,3,3179.88499999046,420,146,"Image6_many.PNG",1
"696",343,4429865,"Mono",2,4,4200.33499971032,372,35,"Image6_many.PNG",1
"697",344,4429865,"Mono",2,5,6916.60499991849,484,89,"Image6_many.PNG",1
"698",352,4408537,"Mono",2,1,1403.59999990463,162,52,"Image6_many.PNG",1
"699",353,4408537,"Mono",2,2,2375.29999995232,356,23,"Image6_many.PNG",1
"700",354,4408537,"Mono",2,3,3623.39999985695,472,92,"Image6_many.PNG",1
"701",355,4408537,"Mono",2,4,4485.5,422,155,"Image6_many.PNG",1
"702",356,4408537,"Mono",2,5,6180.09999990463,112,170,"Image6_many.PNG",1
"703",364,4392148,"Mono",2,1,1492.30000001192,162,47,"Image6_many.PNG",1
"704",365,4392148,"Mono",2,2,2596.30000001192,101,168,"Image6_many.PNG",1
"705",366,4392148,"Mono",2,3,4713.60000002384,354,29,"Image6_many.PNG",1
"706",367,4392148,"Mono",2,4,5808.20000001788,476,91,"Image6_many.PNG",1
"707",368,4392148,"Mono",2,5,7684.60000002384,420,146,"Image6_many.PNG",1
"708",373,4379880,"Mono",1,1,1776,93,168,"Image6_many.PNG",1
"709",374,4379880,"Mono",1,2,4312,420,154,"Image6_many.PNG",1
"710",375,4379880,"Mono",1,3,5955,355,32,"Image6_many.PNG",1
"711",376,4379880,"Mono",1,4,7258,163,54,"Image6_many.PNG",1
"712",383,4354253,"Mono",1,1,1622.70000000112,162,55,"Image6_many.PNG",1
"713",384,4354253,"Mono",1,2,2649,96,169,"Image6_many.PNG",1
"714",385,4354253,"Mono",1,3,5177.90000000037,480,93,"Image6_many.PNG",1
"715",386,4354253,"Mono",1,4,7142.80000000075,347,29,"Image6_many.PNG",1
"716",394,4336146,"Mono",1,1,2589.39999999851,91,172,"Image6_many.PNG",1
"717",395,4336146,"Mono",1,2,3635.70000000298,164,54,"Image6_many.PNG",1
"718",396,4336146,"Mono",1,3,4333.10000000149,365,34,"Image6_many.PNG",1
"719",397,4336146,"Mono",1,4,5224.89999999851,473,95,"Image6_many.PNG",1
"720",398,4336146,"Mono",1,5,6145.5,435,152,"Image6_many.PNG",1
"721",408,4334877,"Mono",2,1,1585.30000007153,94,172,"Image6_many.PNG",1
"722",409,4334877,"Mono",2,2,2909.5,167,51,"Image6_many.PNG",1
"723",410,4334877,"Mono",2,3,5448.10000002384,422,148,"Image6_many.PNG",1
"724",411,4334877,"Mono",2,4,6878.70000004768,355,29,"Image6_many.PNG",1
"725",419,4333569,"Mono",2,1,2119.80000019073,350,24,"Image6_many.PNG",1
"726",420,4333569,"Mono",2,2,4111.19999980927,483,100,"Image6_many.PNG",1
"727",421,4333569,"Mono",2,3,5546.69999980927,415,153,"Image6_many.PNG",1
"728",422,4333569,"Mono",2,4,8695.5,163,52,"Image6_many.PNG",1
"729",427,4332728,"Mono",1,1,1436,421,150,"Image6_many.PNG",1
"730",428,4332728,"Mono",1,2,2083,482,94,"Image6_many.PNG",1
"731",429,4332728,"Mono",1,3,3135,157,49,"Image6_many.PNG",1
"732",430,4332728,"Mono",1,4,5793,94,170,"Image6_many.PNG",1
"733",431,4332728,"Mono",1,5,8145,355,34,"Image6_many.PNG",1
"734",439,4336342,"Binoc",1,1,2632,106,171,"Image6_many.PNG",1
"735",440,4336342,"Binoc",1,2,3929,173,54,"Image6_many.PNG",1
"736",441,4336342,"Binoc",1,3,4874,350,28,"Image6_many.PNG",1
"737",442,4336342,"Binoc",1,4,7517,480,85,"Image6_many.PNG",1
"738",443,4336342,"Binoc",1,5,9510,479,95,"Image6_many.PNG",1
"739",454,4424285,"Binoc",2,1,1358.40000000596,166,51,"Image6_many.PNG",1
"740",455,4424285,"Binoc",2,2,2325.69999998808,348,37,"Image6_many.PNG",1
"741",456,4424285,"Binoc",2,3,3242.09999999404,397,151,"Image6_many.PNG",1
"742",457,4424285,"Binoc",2,4,4190,455,89,"Image6_many.PNG",1
"743",458,4424285,"Binoc",2,5,5728.90000000596,113,170,"Image6_many.PNG",1
"744",464,4447916,"Binoc",2,1,4494,417,154,"Image6_many.PNG",1
"745",465,4447916,"Binoc",2,2,6561.60000000056,418,191,"Image6_many.PNG",0
"746",472,4448050,"Binoc",2,1,2499,471,82,"Image6_many.PNG",1
"747",473,4448050,"Binoc",2,2,7793,178,47,"Image6_many.PNG",1
"748",474,4448050,"Binoc",2,3,9291,124,177,"Image6_many.PNG",1
"749",475,4448050,"Binoc",2,4,9664,110,174,"Image6_many.PNG",1
"750",483,4449574,"Binoc",2,1,2306.09999990463,162,55,"Image6_many.PNG",1
"751",484,4449574,"Binoc",2,2,3669.69999980927,358,28,"Image6_many.PNG",1
"752",485,4449574,"Binoc",2,3,5126.19999980927,479,92,"Image6_many.PNG",1
"753",486,4449574,"Binoc",2,4,7211.09999990463,89,169,"Image6_many.PNG",1
"754",494,4450348,"Binoc",2,1,1347.29999995232,169,52,"Image6_many.PNG",1
"755",495,4450348,"Binoc",2,2,2378.29999995232,359,37,"Image6_many.PNG",1
"756",496,4450348,"Binoc",2,3,3872.70000004768,469,88,"Image6_many.PNG",1
"757",497,4450348,"Binoc",2,4,6650.20000004768,425,153,"Image6_many.PNG",1
"758",498,4450348,"Binoc",2,5,8497.5,100,165,"Image6_many.PNG",1
"759",503,4495599,"Binoc",1,1,2700.09999999404,116,176,"Image6_many.PNG",1
"760",504,4495599,"Binoc",1,2,4173.30000001192,96,176,"Image6_many.PNG",1
"761",505,4495599,"Binoc",1,3,5054.70000001788,174,57,"Image6_many.PNG",1
"762",506,4495599,"Binoc",1,4,5779.30000001192,162,50,"Image6_many.PNG",1
"763",507,4495599,"Binoc",1,5,8901.59999999404,426,148,"Image6_many.PNG",1
"764",514,4494914,"Binoc",1,1,2024,84,169,"Image6_many.PNG",1
"765",515,4494914,"Binoc",1,2,6185.10000000894,414,150,"Image6_many.PNG",1
"766",523,4488838,"Binoc",2,1,2394.70000000298,481,91,"Image6_many.PNG",1
"767",524,4488838,"Binoc",2,2,3864.40000000596,403,153,"Image6_many.PNG",1
"768",525,4488838,"Binoc",2,3,5043.79999999702,355,28,"Image6_many.PNG",1
"769",533,4475413,"Binoc",2,1,2034,96,170,"Image6_many.PNG",1
"770",534,4475413,"Binoc",2,2,7464.19999999925,480,95,"Image6_many.PNG",1
"771",535,4475413,"Binoc",2,3,9185.10000000149,419,153,"Image6_many.PNG",1
"772",540,4469128,"Binoc",1,1,6020.86999999301,418,154,"Image6_many.PNG",1
"773",541,4469128,"Binoc",1,2,9477.92999999365,347,36,"Image6_many.PNG",1
"774",547,4449717,"Binoc",1,1,2450.09999999404,105,172,"Image6_many.PNG",1
"775",548,4449717,"Binoc",1,2,5098.70000000298,420,150,"Image6_many.PNG",1
"776",549,4449717,"Binoc",1,3,6126.5,485,95,"Image6_many.PNG",1
"777",557,4449137,"Binoc",2,1,1658.79999995232,462,89,"Image6_many.PNG",1
"778",558,4449137,"Binoc",2,2,2746.59999990463,360,29,"Image6_many.PNG",1
"779",559,4449137,"Binoc",2,3,5038.79999995232,426,151,"Image6_many.PNG",1
"780",560,4449137,"Binoc",2,4,9578.79999995232,154,49,"Image6_many.PNG",1
"781",565,4443776,"Binoc",1,1,1683.90000009537,167,53,"Image6_many.PNG",1
"782",566,4443776,"Binoc",1,2,2739.69999980927,105,176,"Image6_many.PNG",1
"783",567,4443776,"Binoc",1,3,4877.40000009537,426,148,"Image6_many.PNG",1
"784",568,4443776,"Binoc",1,4,5918.80000019073,342,30,"Image6_many.PNG",1
"785",576,4384320,"Binoc",1,1,1945.70000004768,91,172,"Image6_many.PNG",1
"786",577,4384320,"Binoc",1,2,2615.60000002384,152,50,"Image6_many.PNG",1
"787",578,4384320,"Binoc",1,3,4681.70000004768,413,149,"Image6_many.PNG",1
"788",579,4384320,"Binoc",1,4,6557.60000002384,353,33,"Image6_many.PNG",1
"789",587,4373538,"Binoc",1,1,1656.5,167,50,"Image6_many.PNG",1
"790",588,4373538,"Binoc",1,2,2375.09999996424,349,34,"Image6_many.PNG",1
"791",589,4373538,"Binoc",1,3,3621.5,423,152,"Image6_many.PNG",1
"792",590,4373538,"Binoc",1,4,9656.59999996424,112,165,"Image6_many.PNG",1
"793",600,4339358,"Binoc",2,1,2087.80000001192,172,52,"Image6_many.PNG",1
"794",601,4339358,"Binoc",2,2,4855.59999996424,345,28,"Image6_many.PNG",1
"795",602,4339358,"Binoc",2,3,5953.89999997616,482,93,"Image6_many.PNG",1
"796",603,4339358,"Binoc",2,4,8597.19999998808,99,175,"Image6_many.PNG",1
"797",611,4334401,"Binoc",2,1,1508,157,47,"Image6_many.PNG",1
"798",612,4334401,"Binoc",2,2,2396.09999990463,352,31,"Image6_many.PNG",1
"799",613,4334401,"Binoc",2,3,5257.59999990463,416,163,"Image6_many.PNG",0
"800",614,4334401,"Binoc",2,4,6261.5,416,151,"Image6_many.PNG",1
"801",615,4334401,"Binoc",2,5,7084,421,154,"Image6_many.PNG",1
"802",616,4334401,"Binoc",2,6,9668.09999990463,100,175,"Image6_many.PNG",1
"803",624,4333590,"Binoc",2,1,2808.30000000028,422,150,"Image6_many.PNG",1
"804",625,4333590,"Binoc",2,2,3772.70000000019,490,86,"Image6_many.PNG",1
"805",626,4333590,"Binoc",2,3,5433.90000000037,107,174,"Image6_many.PNG",1
"806",627,4333590,"Binoc",2,4,6926,159,50,"Image6_many.PNG",1
"807",632,4333147,"Binoc",1,1,3567,106,174,"Image6_many.PNG",1
"808",633,4333147,"Binoc",1,2,5887.79999995232,173,50,"Image6_many.PNG",1
"809",634,4333147,"Binoc",1,3,7769.79999995232,408,150,"Image6_many.PNG",1
"810",641,4381159,"Binoc",1,1,1606.48999991827,162,52,"Image6_many.PNG",1
"811",642,4381159,"Binoc",1,2,2966.17499995045,96,170,"Image6_many.PNG",1
"812",643,4381159,"Binoc",1,3,5486.9249999756,411,149,"Image6_many.PNG",1
"813",644,4381159,"Binoc",1,4,7014.93999990635,479,90,"Image6_many.PNG",1
"814",645,4381159,"Binoc",1,5,7918.07000001427,362,35,"Image6_many.PNG",1
"815",651,4454520,"Binoc",1,1,3115.80000000075,97,170.762331838565,"Image6_many.PNG",1
"816",652,4454520,"Binoc",1,2,4982.90000000037,162,62.2780269058296,"Image6_many.PNG",0
"817",653,4454520,"Binoc",1,3,7422.40000000037,413,147.659192825112,"Image6_many.PNG",1
"818",660,4452039,"Binoc",1,1,3292.70000000019,412,155,"Image6_many.PNG",1
"819",661,4452039,"Binoc",1,2,6640.10000000009,160,49,"Image6_many.PNG",1
"820",662,4452039,"Binoc",1,3,8725,107,177,"Image6_many.PNG",1
"821",673,4404605,"Binoc",2,1,1268.20000000019,164,48,"Image6_many.PNG",1
"822",674,4404605,"Binoc",2,2,2291.79999999981,100,180,"Image6_many.PNG",1
"823",675,4404605,"Binoc",2,3,3411.79999999981,341,34,"Image6_many.PNG",1
"824",676,4404605,"Binoc",2,4,4364.89999999991,435,151,"Image6_many.PNG",1
"825",677,4404605,"Binoc",2,5,8734.5,467,88,"Image6_many.PNG",1
"826",682,4354253,"Binoc",1,1,1559.30000000075,159,54,"Image6_many.PNG",1
"827",683,4354253,"Binoc",1,2,2724.09999999963,357,29,"Image6_many.PNG",1
"828",684,4354253,"Binoc",1,3,4857.5,480,91,"Image6_many.PNG",1
"829",685,4354253,"Binoc",1,4,7063.59999999963,94,171,"Image6_many.PNG",1
"830",694,4491824,"Binoc",2,1,4803.79999999702,354,29,"Image6_many.PNG",1
"831",695,4491824,"Binoc",2,2,8035.19999999553,163,53,"Image6_many.PNG",1
"832",700,4392148,"Binoc",1,1,1563.59999999404,353,30,"Image6_many.PNG",1
"833",701,4392148,"Binoc",1,2,2818.79999998212,476,94,"Image6_many.PNG",1
"834",702,4392148,"Binoc",1,3,3853,421,144,"Image6_many.PNG",1
"835",703,4392148,"Binoc",1,4,5189.29999998212,415,158,"Image6_many.PNG",1
"836",704,4392148,"Binoc",1,5,8229.79999998212,417,149,"Image6_many.PNG",1
"837",712,4379880,"Binoc",1,1,1796.99999999999,89,176,"Image6_many.PNG",1
"838",713,4379880,"Binoc",1,2,4767.99999999999,427,156,"Image6_many.PNG",1
"839",714,4379880,"Binoc",1,3,8836.99999999999,352,28,"Image6_many.PNG",1
"840",722,4372219,"Binoc",1,1,2945.89999999851,417,148,"Image6_many.PNG",1
"841",723,4372219,"Binoc",1,2,4226,484,89,"Image6_many.PNG",1
"842",724,4372219,"Binoc",1,3,5418,153,56,"Image6_many.PNG",1
"843",725,4372219,"Binoc",1,4,6828.29999999702,163,52,"Image6_many.PNG",1
"844",732,4336146,"Binoc",1,1,1820.5,162,54,"Image6_many.PNG",1
"845",733,4336146,"Binoc",1,2,3884.60000000149,417,155,"Image6_many.PNG",1
"846",734,4336146,"Binoc",1,3,6002.70000000298,110,166,"Image6_many.PNG",1
"847",735,4336146,"Binoc",1,4,7168.30000000447,489,85,"Image6_many.PNG",1
"848",736,4336146,"Binoc",1,5,8026.60000000149,489,92,"Image6_many.PNG",1
"849",747,4334877,"Binoc",2,1,1528.29999995232,92,174,"Image6_many.PNG",1
"850",748,4334877,"Binoc",2,2,2759.09999990463,355,31,"Image6_many.PNG",1
"851",749,4334877,"Binoc",2,3,3852.19999992847,172,53,"Image6_many.PNG",1
"852",750,4334877,"Binoc",2,4,4948.79999995232,472,85,"Image6_many.PNG",1
"853",751,4334877,"Binoc",2,5,5798.09999990463,477,95,"Image6_many.PNG",1
"854",759,4333569,"Binoc",2,1,2955.7999997139,418,154,"Image6_many.PNG",1
"855",760,4333569,"Binoc",2,2,4344.59999990463,479,91,"Image6_many.PNG",1
"856",761,4333569,"Binoc",2,3,5935.59999990463,349,30,"Image6_many.PNG",1
"857",762,4333569,"Binoc",2,4,6963.39999961853,160,51,"Image6_many.PNG",1
"858",763,4333569,"Binoc",2,5,8437.2999997139,113,170,"Image6_many.PNG",1
"859",770,4332728,"Binoc",2,1,2791,94,171,"Image6_many.PNG",1
"860",771,4332728,"Binoc",2,2,3446,160,50,"Image6_many.PNG",1
"861",772,4332728,"Binoc",2,3,4596,354,32,"Image6_many.PNG",1
"862",773,4332728,"Binoc",2,4,5705,419,155,"Image6_many.PNG",1
"863",774,4332728,"Binoc",2,5,6416,479,90,"Image6_many.PNG",1
"864",781,4495135,"Binoc",2,1,5348.80000019073,100,176,"Image6_many.PNG",1
"865",782,4495135,"Binoc",2,2,7917,167,51,"Image6_many.PNG",1
"866",788,4476704,"Binoc",2,1,3336,112,173,"Image6_many.PNG",1
"867",789,4476704,"Binoc",2,2,7956,417,153,"Image6_many.PNG",1
"868",790,4476704,"Binoc",2,3,9002,488,94,"Image6_many.PNG",1
"869",795,4472380,"Binoc",1,1,2904,98,172,"Image6_many.PNG",1
"870",796,4472380,"Binoc",1,2,7576.09999990463,410,149,"Image6_many.PNG",1
"871",797,4472380,"Binoc",1,3,8477.89999997616,476,91,"Image6_many.PNG",1
"872",803,4449420,"Binoc",1,1,5071.69999998808,485.945419103314,90,"Image6_many.PNG",1
"873",804,4449420,"Binoc",1,2,8307.59999999404,358.697855750487,31,"Image6_many.PNG",1
"874",811,4447985,"Binoc",2,1,3646.19999980927,352,26.88,"Image6_many.PNG",1
"875",812,4447985,"Binoc",2,2,6166.09999990463,417,156.302222222222,"Image6_many.PNG",1
"876",817,4445309,"Binoc",1,1,2660.39999997616,348,33,"Image6_many.PNG",1
"877",818,4445309,"Binoc",1,2,4435.5,414,159,"Image6_many.PNG",1
"878",819,4445309,"Binoc",1,3,8261.5,177,47,"Image6_many.PNG",1
"879",826,4429865,"Binoc",1,1,1357.3399996385,165,51,"Image6_many.PNG",1
"880",827,4429865,"Binoc",1,2,2389.20999970287,363,29,"Image6_many.PNG",1
"881",828,4429865,"Binoc",1,3,3239.35499973595,411,145,"Image6_many.PNG",1
"882",829,4429865,"Binoc",1,4,5410.59499979019,415,151,"Image6_many.PNG",1
"883",830,4429865,"Binoc",1,5,6893.31499999389,104,175,"Image6_many.PNG",1
"884",841,4408537,"Binoc",2,1,1803.10000014305,169,57,"Image6_many.PNG",1
"885",842,4408537,"Binoc",2,2,3655,348,33,"Image6_many.PNG",1
"886",843,4408537,"Binoc",2,3,5283.70000004768,485,98,"Image6_many.PNG",1
"887",851,4489139,"Binoc",2,1,1730.79999995232,94,169,"Image6_many.PNG",1
"888",852,4489139,"Binoc",2,2,4146.89999997616,162,56,"Image6_many.PNG",1
"889",853,4489139,"Binoc",2,3,6734,420,156,"Image6_many.PNG",1
"890",854,4489139,"Binoc",2,4,8355.5,484,89,"Image6_many.PNG",1
"891",855,4489139,"Binoc",2,5,8954.5,353,32,"Image6_many.PNG",1
"892",863,4482002,"Binoc",2,1,6013,161,56,"Image6_many.PNG",1
"893",871,4460944,"Binoc",2,1,2716.10000002384,153,52,"Image6_many.PNG",1
"894",872,4460944,"Binoc",2,2,5014,112,178,"Image6_many.PNG",1
"895",873,4460944,"Binoc",2,3,8848.20000001788,423,143,"Image6_many.PNG",1
"896",874,4460944,"Binoc",2,4,9582.40000000596,483,94,"Image6_many.PNG",1
"897",885,4450899,"Binoc",1,1,3126.60000014305,350,33,"Image6_many.PNG",1
"898",886,4450899,"Binoc",1,2,4423.40000009537,172,53,"Image6_many.PNG",1
"899",887,4450899,"Binoc",1,3,5926.80000019073,107,179,"Image6_many.PNG",1
"900",888,4450899,"Binoc",1,4,8709.80000019073,89,162,"Image6_many.PNG",1
"901",889,4450899,"Binoc",1,5,9494.30000019073,92,168,"Image6_many.PNG",1
"902",898,4449369,"Binoc",2,1,3029.20000004768,413,152,"Image6_many.PNG",1
"903",899,4449369,"Binoc",2,2,4767.5,485,88,"Image6_many.PNG",1
"904",900,4449369,"Binoc",2,3,7234.09999990463,166,50,"Image6_many.PNG",1
"905",901,4449369,"Binoc",2,4,9814.20000004768,102,168,"Image6_many.PNG",1
"906",906,4449101,"Binoc",1,1,2700.70000001788,476.927875243665,90,"Image6_many.PNG",1
"907",907,4449101,"Binoc",1,2,5428.80000001192,348.678362573099,30,"Image6_many.PNG",1
"908",908,4449101,"Binoc",1,3,7916.5,115.224171539961,171,"Image6_many.PNG",1
