"","X1","Participant.Private.ID","Eye.Condition","Trial.Number","Attempt","Reaction.Time","X.Coordinate","Y.Coordinate","VS_Puzzle","Correct"
"1",1,4333590,"Mono",1,1,7496.89999999991,493,117,"Image1.PNG",1
"2",13,4334401,"Mono",2,1,5065,310,141,"Image1.PNG",0
"3",20,4339358,"Mono",1,1,13256.8000000119,496,119,"Image1.PNG",1
"4",31,4384320,"Mono",3,1,8068.19999992847,497,128,"Image1.PNG",1
"5",42,4443776,"Mono",3,1,2051,491,129,"Image1.PNG",1
"6",52,4448050,"Mono",2,1,27875,492,118,"Image1.PNG",1
"7",59,4449137,"Mono",2,1,2826.70000004768,499,118,"Image1.PNG",1
"8",69,4449717,"Mono",3,1,13389.5,304,39,"Image1.PNG",0
"9",81,4452039,"Mono",4,1,9095.19999999995,509,115,"Image1.PNG",1
"10",91,4454520,"Mono",4,1,16872.0999999996,509,120,"Image1.PNG",1
"11",99,4449574,"Mono",3,1,2149,498,119,"Image1.PNG",1
"12",109,4424285,"Mono",4,1,13472.599999994,504,118,"Image1.PNG",1
"13",115,4404605,"Mono",1,1,6309.30000000005,491,123,"Image1.PNG",1
"14",127,4381159,"Mono",1,1,16716.774999979,492,118,"Image1.PNG",1
"15",138,4373538,"Mono",4,1,14850.6999999881,492,121,"Image1.PNG",1
"16",145,4336342,"Mono",1,1,11657,485,121,"Image1.PNG",1
"17",157,4333147,"Mono",4,1,55316.4000000954,493,119,"Image1.PNG",1
"18",163,4450348,"Mono",3,1,1635.60000014305,489,127,"Image1.PNG",1
"19",173,4334877,"Mono",1,1,6078.79999995232,486,122,"Image1.PNG",1
"20",185,4392148,"Mono",3,1,6246.5,491,116,"Image1.PNG",1
"21",198,4447985,"Mono",4,1,26309.7999999523,483,115,"Image1.PNG",1
"22",204,4449420,"Mono",3,1,12704.5,502,111,"Image1.PNG",1
"23",210,4450899,"Mono",1,1,8490.69999980927,505,124,"Image1.PNG",1
"24",221,4452506,"Mono",3,1,26166,490,122,"Image1.PNG",1
"25",226,4449369,"Mono",1,1,14379.8999998569,492,122,"Image1.PNG",1
"26",232,4449101,"Mono",1,1,5501.69999998808,500,125,"Image1.PNG",1
"27",243,4445309,"Mono",4,1,47142.3000000715,498,120,"Image1.PNG",1
"28",249,4429865,"Mono",4,1,5847.43000008166,498,120,"Image1.PNG",1
"29",259,4408537,"Mono",2,1,9779.5,492,117,"Image1.PNG",1
"30",272,4379880,"Mono",3,1,15386,510,123,"Image1.PNG",1
"31",283,4372219,"Mono",4,1,6605.69999999553,491,119,"Image1.PNG",1
"32",295,4354253,"Mono",4,1,4473.5,492,120,"Image1.PNG",1
"33",306,4336146,"Mono",4,1,4350.20000000298,492,121,"Image1.PNG",1
"34",315,4333569,"Mono",1,1,11107.5999999046,488,120,"Image1.PNG",1
"35",328,4332728,"Mono",3,1,1897,488,119,"Image1.PNG",1
"36",339,4333147,"Binoc",2,1,3622.70000004768,496,119,"Image1.PNG",1
"37",350,4333590,"Binoc",4,1,20528.8000000003,504,111,"Image1.PNG",1
"38",360,4334401,"Binoc",3,1,57774.5,493,120,"Image1.PNG",1
"39",371,4336342,"Binoc",1,1,5920,491,121,"Image1.PNG",1
"40",386,4339358,"Binoc",4,1,21360.5,490,118,"Image1.PNG",1
"41",396,4373538,"Binoc",4,1,5203.20000004768,485,117,"Image1.PNG",1
"42",407,4381159,"Binoc",4,1,14382.1400000015,491,119,"Image1.PNG",1
"43",417,4384320,"Binoc",4,1,3523.80000007153,512,118,"Image1.PNG",1
"44",428,4404605,"Binoc",4,1,11536.8999999999,486,118,"Image1.PNG",1
"45",440,4424285,"Binoc",4,1,2254.70000001788,477,114,"Image1.PNG",1
"46",449,4443776,"Binoc",1,1,2336.09999990463,488,124,"Image1.PNG",1
"47",463,4448050,"Binoc",4,1,37188,489,122,"Image1.PNG",1
"48",472,4449137,"Binoc",3,1,18539.7000000477,493,118,"Image1.PNG",1
"49",482,4449574,"Binoc",3,1,2288.30000019073,500,112,"Image1.PNG",1
"50",491,4449717,"Binoc",1,1,2839.39999999106,491,125,"Image1.PNG",1
"51",501,4450348,"Binoc",3,1,1198.79999995232,483,122,"Image1.PNG",1
"52",514,4452039,"Binoc",4,1,14036.8999999999,470,117,"Image1.PNG",1
"53",522,4454520,"Binoc",2,1,9243.59999999963,494,118,"Image1.PNG",1
"54",530,4332728,"Binoc",1,1,5068,484,121,"Image1.PNG",1
"55",544,4336146,"Binoc",4,1,4107.09999999404,496,117,"Image1.PNG",1
"56",553,4372219,"Binoc",1,1,3358.60000000149,500,122,"Image1.PNG",1
"57",563,4379880,"Binoc",1,1,8229,495,117,"Image1.PNG",1
"58",573,4392148,"Binoc",1,1,15853.900000006,491,124,"Image1.PNG",1
"59",588,4445309,"Binoc",4,1,18749,491,126,"Image1.PNG",1
"60",596,4447985,"Binoc",3,1,5141.60000014305,492,121,"Image1.PNG",1
"61",602,4449101,"Binoc",2,1,4970.40000000596,492,113,"Image1.PNG",1
"62",608,4449369,"Binoc",1,1,8744.59999990463,500,121,"Image1.PNG",1
"63",619,4449420,"Binoc",3,1,16383.400000006,489,114,"Image1.PNG",1
"64",624,4452506,"Binoc",1,1,26179,491,122,"Image1.PNG",1
"65",631,4450899,"Binoc",2,1,18784.5,495,130,"Image1.PNG",1
"66",643,4429865,"Binoc",2,1,5754.30499995127,496,120,"Image1.PNG",1
"67",657,4408537,"Binoc",4,1,8440.70000004768,480,120,"Image1.PNG",1
"68",666,4354253,"Binoc",3,1,6246.19999999925,487,118,"Image1.PNG",1
"69",676,4334877,"Binoc",3,1,31576.5,506,124,"Image1.PNG",1
"70",687,4333569,"Binoc",2,1,10853.5,488,126,"Image1.PNG",1
"71",2,4333590,"Mono",2,1,6168.69999999995,163,214,"Image2.PNG",1
"72",15,4334401,"Mono",4,1,5664.09999990463,161,212,"Image2.PNG",1
"73",23,4339358,"Mono",4,1,6036.39999997616,160,209,"Image2.PNG",1
"74",29,4384320,"Mono",1,1,7504.30000007153,165,216,"Image2.PNG",1
"75",43,4443776,"Mono",4,1,12332.8000001907,170,209,"Image2.PNG",1
"76",53,4448050,"Mono",3,1,26371,159,211,"Image2.PNG",1
"77",58,4449137,"Mono",1,1,2763.5,160,209,"Image2.PNG",1
"78",68,4449717,"Mono",2,1,4195,157,128,"Image2.PNG",0
"79",80,4452039,"Mono",3,1,9028.80000000005,150,211,"Image2.PNG",1
"80",88,4454520,"Mono",1,1,9285.40000000037,160,214.753521126761,"Image2.PNG",1
"81",100,4449574,"Mono",4,1,5924.60000038147,165,212,"Image2.PNG",1
"82",108,4424285,"Mono",3,1,5701.80000001192,163,213,"Image2.PNG",1
"83",118,4404605,"Mono",4,1,6683.70000000019,173,217,"Image2.PNG",1
"84",129,4381159,"Mono",3,1,31981.2450000318,160,217,"Image2.PNG",1
"85",137,4373538,"Mono",3,1,9747.80000001192,163,212,"Image2.PNG",1
"86",147,4336342,"Mono",3,1,28509,166,210,"Image2.PNG",1
"87",154,4333147,"Mono",1,1,34127.7999999523,160,214,"Image2.PNG",1
"88",161,4450348,"Mono",1,1,5752,172,209,"Image2.PNG",1
"89",176,4334877,"Mono",4,1,4852.30000007153,160,212,"Image2.PNG",1
"90",186,4392148,"Mono",4,1,6251.29999998212,161,206,"Image2.PNG",1
"91",197,4447985,"Mono",3,1,6950.79999995232,148,209,"Image2.PNG",1
"92",205,4449420,"Mono",4,1,7449.09999999404,149.232087227414,212.746478873239,"Image2.PNG",1
"93",212,4450899,"Mono",3,1,29919.6000001431,158,215,"Image2.PNG",1
"94",219,4452506,"Mono",1,1,14245,159,213,"Image2.PNG",1
"95",228,4449369,"Mono",3,1,6593,159,216,"Image2.PNG",1
"96",233,4449101,"Mono",2,1,15576.900000006,491.764797507788,12.9545454545455,"Image2.PNG",0
"97",242,4445309,"Mono",3,1,30002.1000000238,176,216,"Image2.PNG",1
"98",247,4429865,"Mono",2,1,2800.47499993816,166,216,"Image2.PNG",1
"99",258,4408537,"Mono",1,1,19149,155,211,"Image2.PNG",1
"100",270,4379880,"Mono",1,1,3920,168,213,"Image2.PNG",1
"101",282,4372219,"Mono",3,1,4260.5,161,206,"Image2.PNG",1
"102",294,4354253,"Mono",3,1,29628.4000000004,158,213,"Image2.PNG",1
"103",305,4336146,"Mono",3,1,5581.80000000447,180,205,"Image2.PNG",1
"104",318,4333569,"Mono",4,1,5194.2000002861,159,211,"Image2.PNG",1
"105",329,4332728,"Mono",4,1,2815,154,213,"Image2.PNG",1
"106",341,4333147,"Binoc",4,1,7641.79999995232,164,208,"Image2.PNG",1
"107",349,4333590,"Binoc",3,1,13600.5,170,207,"Image2.PNG",1
"108",361,4334401,"Binoc",4,1,8543.5,152,196,"Image2.PNG",0
"109",374,4336342,"Binoc",4,1,12610,159,215,"Image2.PNG",1
"110",385,4339358,"Binoc",3,1,9319.5,166,213,"Image2.PNG",1
"111",393,4373538,"Binoc",1,1,5370.10000002384,144,208,"Image2.PNG",1
"112",405,4381159,"Binoc",2,1,23881.5300000133,161,213,"Image2.PNG",1
"113",416,4384320,"Binoc",3,1,5984.80000007153,172,219,"Image2.PNG",1
"114",426,4404605,"Binoc",2,1,11760,156,209,"Image2.PNG",1
"115",437,4424285,"Binoc",1,1,22416.400000006,153,216,"Image2.PNG",1
"116",452,4443776,"Binoc",4,1,2375.09999990463,162,208,"Image2.PNG",1
"117",462,4448050,"Binoc",3,1,17271,148,212,"Image2.PNG",1
"118",473,4449137,"Binoc",4,1,7278.30000019073,168,208,"Image2.PNG",1
"119",483,4449574,"Binoc",4,1,4766.59999990463,170,214,"Image2.PNG",1
"120",493,4449717,"Binoc",3,1,11264.5,163,213,"Image2.PNG",1
"121",499,4450348,"Binoc",1,1,6895.79999995232,162,210,"Image2.PNG",1
"122",512,4452039,"Binoc",2,1,23196.1000000001,167,207,"Image2.PNG",1
"123",521,4454520,"Binoc",1,1,23458,173,212.746478873239,"Image2.PNG",1
"124",531,4332728,"Binoc",2,1,3888,166,213,"Image2.PNG",1
"125",542,4336146,"Binoc",2,1,6764.70000000298,167,215,"Image2.PNG",1
"126",556,4372219,"Binoc",4,1,2956.39999999851,154,210,"Image2.PNG",1
"127",566,4379880,"Binoc",4,1,12131,151,188,"Image2.PNG",0
"128",575,4392148,"Binoc",3,1,7315.69999998808,159,210,"Image2.PNG",1
"129",587,4445309,"Binoc",3,1,6731.30000007153,163,208,"Image2.PNG",1
"130",594,4447985,"Binoc",1,1,2868.29999995232,154,213,"Image2.PNG",1
"131",601,4449101,"Binoc",1,1,19479,177.275700934579,208.269230769231,"Image2.PNG",1
"132",610,4449369,"Binoc",3,1,20617.5999999046,163,215,"Image2.PNG",1
"133",618,4449420,"Binoc",2,1,20553.5,168.261682242991,207.728873239437,"Image2.PNG",1
"134",627,4452506,"Binoc",4,1,17207,159,213,"Image2.PNG",1
"135",630,4450899,"Binoc",1,1,31626.3999998569,156,203,"Image2.PNG",1
"136",644,4429865,"Binoc",3,1,5120.7300000824,159,214,"Image2.PNG",1
"137",654,4408537,"Binoc",1,1,7769,168,214,"Image2.PNG",1
"138",665,4354253,"Binoc",2,1,3034,153,211,"Image2.PNG",1
"139",677,4334877,"Binoc",4,1,5390.40000009537,160,208,"Image2.PNG",1
"140",686,4333569,"Binoc",1,1,9966,165,215,"Image2.PNG",1
"141",4,4333590,"Mono",4,1,2848.60000000009,613,248,"Image3.PNG",1
"142",14,4334401,"Mono",3,1,4655.89999961853,609,251,"Image3.PNG",1
"143",22,4339358,"Mono",3,1,3042.59999996424,609,245,"Image3.PNG",1
"144",32,4384320,"Mono",4,1,12682.1999999285,614,250,"Image3.PNG",1
"145",40,4443776,"Mono",1,1,3794,606,246,"Image3.PNG",1
"146",51,4448050,"Mono",1,1,19308,607,242,"Image3.PNG",1
"147",61,4449137,"Mono",4,1,18386.0999999046,626,249,"Image3.PNG",1
"148",67,4449717,"Mono",1,1,5524.30000001192,330,251,"Image3.PNG",0
"149",78,4452039,"Mono",1,1,6718.10000000009,598,249,"Image3.PNG",1
"150",89,4454520,"Mono",2,1,9475.79999999888,606.0515625,245,"Image3.PNG",1
"151",97,4449574,"Mono",1,1,4239.5,609,248,"Image3.PNG",1
"152",107,4424285,"Mono",2,1,2399.30000001192,610,254,"Image3.PNG",1
"153",117,4404605,"Mono",3,1,11306.7,603,251,"Image3.PNG",1
"154",130,4381159,"Mono",4,1,5567.15000001714,611,254,"Image3.PNG",1
"155",135,4373538,"Mono",1,1,17090,608.952978056426,248,"Image3.PNG",1
"156",148,4336342,"Mono",4,1,21428,606,253,"Image3.PNG",1
"157",155,4333147,"Mono",2,1,9548.29999995232,600.940438871473,255,"Image3.PNG",1
"158",162,4450348,"Mono",2,1,3216.09999990463,601,243,"Image3.PNG",1
"159",174,4334877,"Mono",2,1,11870.7000000477,603,246,"Image3.PNG",1
"160",183,4392148,"Mono",1,1,5558.20000001788,604,253,"Image3.PNG",1
"161",196,4447985,"Mono",2,1,14183.5,603,247,"Image3.PNG",1
"162",203,4449420,"Mono",2,1,13228.5,597,249,"Image3.PNG",1
"163",211,4450899,"Mono",2,1,5178,597,244,"Image3.PNG",1
"164",222,4452506,"Mono",4,1,4231.00000000001,607,249,"Image3.PNG",1
"165",227,4449369,"Mono",2,1,3843.29999995232,615,255,"Image3.PNG",1
"166",235,4449101,"Mono",4,1,5130.40000000596,615,248,"Image3.PNG",1
"167",240,4445309,"Mono",1,1,10481.8000000715,613,251,"Image3.PNG",1
"168",248,4429865,"Mono",3,1,8372.77999985963,604,258,"Image3.PNG",1
"169",261,4408537,"Mono",4,1,4175.10000014305,588,257,"Image3.PNG",1
"170",271,4379880,"Mono",2,1,4201,615,250,"Image3.PNG",1
"171",280,4372219,"Mono",1,1,16398.8999999985,604,243,"Image3.PNG",1
"172",293,4354253,"Mono",2,1,6035.40000000037,607,249,"Image3.PNG",1
"173",304,4336146,"Mono",2,1,5214.5,604,258,"Image3.PNG",1
"174",316,4333569,"Mono",2,1,10472,613,251,"Image3.PNG",1
"175",327,4332728,"Mono",2,1,3412,613,245,"Image3.PNG",1
"176",340,4333147,"Binoc",3,1,6960.79999995232,597.935736677116,244,"Image3.PNG",1
"177",347,4333590,"Binoc",1,1,10990.5,604,254,"Image3.PNG",1
"178",358,4334401,"Binoc",1,1,4222.30000019073,603,253,"Image3.PNG",1
"179",373,4336342,"Binoc",3,1,2795,603,252,"Image3.PNG",1
"180",384,4339358,"Binoc",2,1,15048.3000000119,612,255,"Image3.PNG",1
"181",395,4373538,"Binoc",3,1,4049.69999998808,607.951410658307,249,"Image3.PNG",1
"182",406,4381159,"Binoc",3,1,5233.61500003375,605,250,"Image3.PNG",1
"183",415,4384320,"Binoc",2,1,4530.60000002384,593,258,"Image3.PNG",1
"184",427,4404605,"Binoc",3,1,9098.59999999963,599,249,"Image3.PNG",1
"185",438,4424285,"Binoc",2,1,3479.29999998212,599,250,"Image3.PNG",1
"186",450,4443776,"Binoc",2,1,3105,616,248,"Image3.PNG",1
"187",460,4448050,"Binoc",1,1,1835,613,239,"Image3.PNG",0
"188",471,4449137,"Binoc",2,1,2958.29999995232,605,249,"Image3.PNG",1
"189",480,4449574,"Binoc",1,1,6575.69999980927,607,252,"Image3.PNG",1
"190",492,4449717,"Binoc",2,1,3271.79999999702,608,255,"Image3.PNG",1
"191",502,4450348,"Binoc",4,1,1868.5,590,257,"Image3.PNG",1
"192",513,4452039,"Binoc",3,1,24106.1000000001,603,255,"Image3.PNG",1
"193",523,4454520,"Binoc",3,1,2415.09999999963,601.059375,245,"Image3.PNG",1
"194",532,4332728,"Binoc",3,1,2181,606,255,"Image3.PNG",1
"195",543,4336146,"Binoc",3,1,6387.19999999553,616,259,"Image3.PNG",1
"196",555,4372219,"Binoc",3,1,6342.89999999851,605,246,"Image3.PNG",1
"197",564,4379880,"Binoc",2,1,6018,607,245,"Image3.PNG",1
"198",574,4392148,"Binoc",2,1,20496.5,610,246,"Image3.PNG",1
"199",586,4445309,"Binoc",2,1,12422.5,608,257,"Image3.PNG",1
"200",597,4447985,"Binoc",4,1,14839.1000001431,605,250,"Image3.PNG",1
"201",604,4449101,"Binoc",4,1,73253,605,256,"Image3.PNG",1
"202",609,4449369,"Binoc",2,1,7565.29999995232,606,248,"Image3.PNG",1
"203",620,4449420,"Binoc",4,1,18598.1000000238,605,251,"Image3.PNG",1
"204",626,4452506,"Binoc",3,1,8222,608,253,"Image3.PNG",1
"205",632,4450899,"Binoc",3,1,23348.2000000477,607,255,"Image3.PNG",1
"206",642,4429865,"Binoc",1,1,5580.57000022382,598,254,"Image3.PNG",1
"207",656,4408537,"Binoc",3,1,4882.40000009537,619,258,"Image3.PNG",1
"208",664,4354253,"Binoc",1,1,2814.5,609,251,"Image3.PNG",1
"209",675,4334877,"Binoc",2,1,9045.90000009537,599,251,"Image3.PNG",1
"210",688,4333569,"Binoc",3,1,2942.5,601,248,"Image3.PNG",1
"211",3,4333590,"Mono",3,1,5144.19999999995,480,92.6702127659574,"Image4.PNG",1
"212",12,4334401,"Mono",1,1,2279.2999997139,33,10,"Image4.PNG",0
"213",21,4339358,"Mono",2,1,2220.39999997616,479,89,"Image4.PNG",1
"214",30,4384320,"Mono",2,1,33444.2000000477,483,93,"Image4.PNG",1
"215",41,4443776,"Mono",2,1,4969,479,89,"Image4.PNG",1
"216",54,4448050,"Mono",4,1,10930,485,82,"Image4.PNG",1
"217",60,4449137,"Mono",3,1,5799.80000019073,489,90,"Image4.PNG",1
"218",70,4449717,"Mono",4,1,6678.30000001192,93,272,"Image4.PNG",0
"219",79,4452039,"Mono",2,1,21486.3,473,87,"Image4.PNG",1
"220",90,4454520,"Mono",3,1,20662,614.040561622465,27,"Image4.PNG",0
"221",98,4449574,"Mono",2,1,10396.2999997139,471,91,"Image4.PNG",1
"222",106,4424285,"Mono",1,1,9833,476,90,"Image4.PNG",1
"223",116,4404605,"Mono",2,1,6084.30000000005,491,95,"Image4.PNG",1
"224",128,4381159,"Mono",2,1,7014.94500006083,486,93,"Image4.PNG",1
"225",136,4373538,"Mono",2,1,3615.70000004768,476,87,"Image4.PNG",1
"226",146,4336342,"Mono",2,1,1559,486,83,"Image4.PNG",1
"227",156,4333147,"Mono",3,1,9379,482,88,"Image4.PNG",1
"228",164,4450348,"Mono",4,1,3804.90000009537,501,88,"Image4.PNG",1
"229",175,4334877,"Mono",3,1,14839.8999999762,468,96,"Image4.PNG",1
"230",184,4392148,"Mono",2,1,3071.59999999404,477,89,"Image4.PNG",1
"231",195,4447985,"Mono",1,1,42361.1000001431,470.735524256651,87,"Image4.PNG",1
"232",202,4449420,"Mono",1,1,4706,498,83,"Image4.PNG",1
"233",213,4450899,"Mono",4,1,12067.3999998569,481,89,"Image4.PNG",1
"234",220,4452506,"Mono",2,1,50171,480,89,"Image4.PNG",1
"235",229,4449369,"Mono",4,1,58347.2000000477,480,87,"Image4.PNG",1
"236",234,4449101,"Mono",3,1,2173,488,93,"Image4.PNG",1
"237",241,4445309,"Mono",2,1,35171.3999999762,463,85,"Image4.PNG",1
"238",246,4429865,"Mono",1,1,2701.52000011876,479,90,"Image4.PNG",1
"239",260,4408537,"Mono",3,1,16406.2999999523,486,84,"Image4.PNG",1
"240",273,4379880,"Mono",4,1,2638,479,89,"Image4.PNG",1
"241",281,4372219,"Mono",2,1,4749,485,86,"Image4.PNG",1
"242",292,4354253,"Mono",1,1,6186.69999999925,481,90,"Image4.PNG",1
"243",303,4336146,"Mono",1,1,1225.20000000298,476,95,"Image4.PNG",1
"244",317,4333569,"Mono",3,1,10485,484,96,"Image4.PNG",1
"245",326,4332728,"Mono",1,1,4080,481,90,"Image4.PNG",1
"246",338,4333147,"Binoc",1,1,6431.90000009537,483,87,"Image4.PNG",1
"247",348,4333590,"Binoc",2,1,15186.6000000001,485,86.6914893617021,"Image4.PNG",1
"248",359,4334401,"Binoc",2,1,6009.59999990463,481,93,"Image4.PNG",1
"249",372,4336342,"Binoc",2,1,1415,482,93,"Image4.PNG",1
"250",383,4339358,"Binoc",1,1,10129.2000000477,489,93,"Image4.PNG",1
"251",394,4373538,"Binoc",2,1,4960.10000002384,475,90,"Image4.PNG",1
"252",404,4381159,"Binoc",1,1,6187.86499998532,483,87,"Image4.PNG",1
"253",414,4384320,"Binoc",1,1,4041.89999997616,503,90,"Image4.PNG",1
"254",425,4404605,"Binoc",1,1,4380.39999999991,463,93,"Image4.PNG",1
"255",439,4424285,"Binoc",3,1,6759.30000001192,458,95,"Image4.PNG",1
"256",451,4443776,"Binoc",3,1,3975.30000019073,496,84,"Image4.PNG",1
"257",461,4448050,"Binoc",2,1,2339,465,84,"Image4.PNG",1
"258",470,4449137,"Binoc",1,1,1772.70000004768,483,88,"Image4.PNG",1
"259",481,4449574,"Binoc",2,1,4795.19999980927,472,90,"Image4.PNG",1
"260",494,4449717,"Binoc",4,1,14742.8999999911,481,91,"Image4.PNG",1
"261",500,4450348,"Binoc",2,1,4383.09999990463,484,96,"Image4.PNG",1
"262",511,4452039,"Binoc",1,1,4587.80000000028,471,88,"Image4.PNG",1
"263",524,4454520,"Binoc",4,1,15124.0999999996,488.237129485179,93,"Image4.PNG",1
"264",533,4332728,"Binoc",4,1,3647,484,93,"Image4.PNG",1
"265",541,4336146,"Binoc",1,1,1821.59999999404,461,89,"Image4.PNG",1
"266",554,4372219,"Binoc",2,1,1640.60000000149,480,92,"Image4.PNG",1
"267",565,4379880,"Binoc",3,1,12693,423,76,"Image4.PNG",0
"268",576,4392148,"Binoc",4,1,6498.09999999404,477,96,"Image4.PNG",1
"269",585,4445309,"Binoc",1,1,6082.70000004768,484,89,"Image4.PNG",1
"270",595,4447985,"Binoc",2,1,5782,465.727699530516,92,"Image4.PNG",1
"271",603,4449101,"Binoc",3,1,26808.7000000179,481,92,"Image4.PNG",1
"272",611,4449369,"Binoc",4,1,5111.79999995232,477,93,"Image4.PNG",1
"273",617,4449420,"Binoc",1,1,27491.7000000179,485,86,"Image4.PNG",1
"274",625,4452506,"Binoc",2,1,2798,476,89,"Image4.PNG",1
"275",633,4450899,"Binoc",4,1,15643.1999998093,487,91,"Image4.PNG",1
"276",645,4429865,"Binoc",4,1,3281.66499966756,481,97,"Image4.PNG",1
"277",655,4408537,"Binoc",2,1,8286.40000009537,476,91,"Image4.PNG",1
"278",667,4354253,"Binoc",4,1,1507.79999999888,483,87,"Image4.PNG",1
"279",674,4334877,"Binoc",1,1,6229.80000007153,473,89,"Image4.PNG",1
"280",689,4333569,"Binoc",4,1,9787.5,486,87,"Image4.PNG",1
"281",5,4333590,"Mono",1,1,2102.30000000005,98,172,"Image5_three.PNG",1
"282",6,4333590,"Mono",1,2,5734.69999999995,358,32,"Image5_three.PNG",1
"283",7,4333590,"Mono",1,3,6925.30000000005,415,159,"Image5_three.PNG",1
"284",18,4334401,"Mono",2,1,2972.5,357,31,"Image5_three.PNG",1
"285",19,4334401,"Mono",2,2,6092.90000009537,99,172,"Image5_three.PNG",1
"286",24,4339358,"Mono",1,1,3478.59999996424,100,169,"Image5_three.PNG",1
"287",25,4339358,"Mono",1,2,8416.19999998808,349,27,"Image5_three.PNG",1
"288",37,4384320,"Mono",2,1,2089.39999997616,112,169,"Image5_three.PNG",1
"289",38,4384320,"Mono",2,2,7999.29999995232,353,32,"Image5_three.PNG",1
"290",39,4384320,"Mono",2,3,9219.5,421,154,"Image5_three.PNG",1
"291",44,4443776,"Mono",1,1,3668.59999990463,110,171,"Image5_three.PNG",1
"292",45,4443776,"Mono",1,2,5602.40000009537,420,151,"Image5_three.PNG",1
"293",55,4448050,"Mono",1,1,4021,413,151,"Image5_three.PNG",1
"294",65,4449137,"Mono",2,1,2822.69999980927,98,170,"Image5_three.PNG",1
"295",66,4449137,"Mono",2,2,9554.79999995232,367,30,"Image5_three.PNG",1
"296",71,4449717,"Mono",1,1,4377.5,99,170,"Image5_three.PNG",1
"297",72,4449717,"Mono",1,2,7082.09999999404,413,149,"Image5_three.PNG",1
"298",73,4449717,"Mono",1,3,8916.90000000596,354,35,"Image5_three.PNG",1
"299",82,4452039,"Mono",1,1,5019.69999999995,342,27,"Image5_three.PNG",1
"300",83,4452039,"Mono",1,2,6769.69999999995,422,147,"Image5_three.PNG",1
"301",92,4454520,"Mono",1,1,4337.40000000037,104.796511627907,172,"Image5_three.PNG",1
"302",93,4454520,"Mono",1,2,9179,345.329457364341,29,"Image5_three.PNG",1
"303",104,4449574,"Mono",2,1,4526.7999997139,360,29,"Image5_three.PNG",1
"304",105,4449574,"Mono",2,2,7882.2999997139,413,151,"Image5_three.PNG",1
"305",113,4424285,"Mono",2,1,5064,426,151,"Image5_three.PNG",1
"306",114,4424285,"Mono",2,2,7481.5,103,173,"Image5_three.PNG",1
"307",119,4404605,"Mono",1,1,1796,419,155,"Image5_three.PNG",1
"308",120,4404605,"Mono",1,2,4357.19999999972,95,174,"Image5_three.PNG",1
"309",121,4404605,"Mono",1,3,5798.09999999963,338,26,"Image5_three.PNG",1
"310",134,4381159,"Mono",2,1,3860.03000009805,91,166,"Image5_three.PNG",1
"311",139,4373538,"Mono",1,1,1963.89999997616,105,168,"Image5_three.PNG",1
"312",140,4373538,"Mono",1,2,4213.30000001192,425,148,"Image5_three.PNG",1
"313",152,4336342,"Mono",2,1,2994,111,168,"Image5_three.PNG",1
"314",153,4336342,"Mono",2,2,8271.99999999999,353,29,"Image5_three.PNG",1
"315",160,4333147,"Mono",2,1,5849.89999985695,416,151,"Image5_three.PNG",1
"316",165,4450348,"Mono",1,1,2565.90000009537,351,30,"Image5_three.PNG",1
"317",166,4450348,"Mono",1,2,4192.20000004768,420,148,"Image5_three.PNG",1
"318",167,4450348,"Mono",1,3,7893.5,115,172,"Image5_three.PNG",1
"319",177,4334877,"Mono",1,1,5999.10000002384,361,30,"Image5_three.PNG",1
"320",178,4334877,"Mono",1,2,7382.60000002384,428,148,"Image5_three.PNG",1
"321",187,4392148,"Mono",1,1,1549.80000001192,356,34,"Image5_three.PNG",1
"322",188,4392148,"Mono",1,2,3622.5,414,155,"Image5_three.PNG",1
"323",189,4392148,"Mono",1,3,7119.59999999404,102,179,"Image5_three.PNG",1
"324",201,4447985,"Mono",2,1,3714.30000019073,413.803501945525,145,"Image5_three.PNG",1
"325",206,4449420,"Mono",1,1,3743.90000000596,359.698443579767,32.1441441441441,"Image5_three.PNG",1
"326",207,4449420,"Mono",1,2,6771.30000001192,98.1906614785992,174.783783783784,"Image5_three.PNG",1
"327",214,4450899,"Mono",1,1,1717.10000014305,344,31,"Image5_three.PNG",1
"328",215,4450899,"Mono",1,2,6459,422,154,"Image5_three.PNG",1
"329",216,4450899,"Mono",1,3,8520.90000009537,98,169,"Image5_three.PNG",1
"330",225,4452506,"Mono",2,1,6549.00000000001,98,171,"Image5_three.PNG",1
"331",231,4449369,"Mono",2,1,4021.80000019073,415,148,"Image5_three.PNG",1
"332",236,4449101,"Mono",1,1,5457.59999999404,109.212062256809,172.774774774775,"Image5_three.PNG",1
"333",244,4445309,"Mono",1,1,6184.09999990463,424,147,"Image5_three.PNG",1
"334",250,4429865,"Mono",1,1,1801.95999983698,93,175,"Image5_three.PNG",1
"335",251,4429865,"Mono",1,2,3433.6000001058,421,151,"Image5_three.PNG",1
"336",252,4429865,"Mono",1,3,5228.31499995664,372,31,"Image5_three.PNG",1
"337",262,4408537,"Mono",1,1,2032.89999985695,355,30,"Image5_three.PNG",1
"338",263,4408537,"Mono",1,2,2767.29999995232,414,147,"Image5_three.PNG",1
"339",264,4408537,"Mono",1,3,3514.89999985695,109,167,"Image5_three.PNG",1
"340",278,4379880,"Mono",2,1,1667,106,170,"Image5_three.PNG",1
"341",279,4379880,"Mono",2,2,6543,356,31,"Image5_three.PNG",1
"342",284,4372219,"Mono",1,1,2490.79999999702,413,152,"Image5_three.PNG",1
"343",285,4372219,"Mono",1,2,5639.69999999553,353,32,"Image5_three.PNG",1
"344",286,4372219,"Mono",1,3,7711.19999999553,103,174,"Image5_three.PNG",1
"345",300,4354253,"Mono",2,1,1391.40000000037,95,166,"Image5_three.PNG",1
"346",301,4354253,"Mono",2,2,4347.5,354,30,"Image5_three.PNG",1
"347",302,4354253,"Mono",2,3,6838.09999999963,414,144,"Image5_three.PNG",1
"348",312,4336146,"Mono",2,1,1710,101,167,"Image5_three.PNG",1
"349",313,4336146,"Mono",2,2,4200.29999999702,418,152,"Image5_three.PNG",1
"350",314,4336146,"Mono",2,3,5476.19999999553,370,27,"Image5_three.PNG",1
"351",319,4333569,"Mono",1,1,2602.80000019073,350,33,"Image5_three.PNG",1
"352",320,4333569,"Mono",1,2,4178.90000009537,417,153,"Image5_three.PNG",1
"353",321,4333569,"Mono",1,3,6795.90000009537,113,169,"Image5_three.PNG",1
"354",335,4332728,"Mono",2,1,1742,355,32,"Image5_three.PNG",1
"355",336,4332728,"Mono",2,2,2715,420,155,"Image5_three.PNG",1
"356",337,4332728,"Mono",2,3,5106,98,172,"Image5_three.PNG",1
"357",345,4333147,"Binoc",2,1,5369.20000004768,419,148,"Image5_three.PNG",1
"358",346,4333147,"Binoc",2,2,9170,116,170,"Image5_three.PNG",1
"359",351,4333590,"Binoc",1,1,2184.39999999991,99,170,"Image5_three.PNG",1
"360",352,4333590,"Binoc",1,2,5844.69999999972,418,148,"Image5_three.PNG",1
"361",353,4333590,"Binoc",1,3,7167.09999999963,347,27,"Image5_three.PNG",1
"362",362,4334401,"Binoc",1,1,1856.90000009537,91,169,"Image5_three.PNG",1
"363",363,4334401,"Binoc",1,2,9457,408,143,"Image5_three.PNG",1
"364",364,4334401,"Binoc",1,3,9746.19999980927,419,154,"Image5_three.PNG",1
"365",380,4336342,"Binoc",2,1,2210,101,168,"Image5_three.PNG",1
"366",381,4336342,"Binoc",2,2,6022,415,153,"Image5_three.PNG",1
"367",382,4336342,"Binoc",2,3,6800,355,26,"Image5_three.PNG",1
"368",387,4339358,"Binoc",1,1,3566.80000001192,93,165,"Image5_three.PNG",1
"369",388,4339358,"Binoc",1,2,6919,417,147,"Image5_three.PNG",1
"370",401,4373538,"Binoc",2,1,2447.09999996424,102,168,"Image5_three.PNG",1
"371",402,4373538,"Binoc",2,2,5624.39999997616,354,33,"Image5_three.PNG",1
"372",403,4373538,"Binoc",2,3,6808.30000001192,428,148,"Image5_three.PNG",1
"373",413,4381159,"Binoc",2,1,2010.17500006128,99,170,"Image5_three.PNG",1
"374",422,4384320,"Binoc",2,1,2497.5,422,149,"Image5_three.PNG",1
"375",423,4384320,"Binoc",2,2,3407.39999997616,345,33,"Image5_three.PNG",1
"376",424,4384320,"Binoc",2,3,8403.60000002384,104,167,"Image5_three.PNG",1
"377",429,4404605,"Binoc",1,1,1379.80000000028,349,34,"Image5_three.PNG",1
"378",430,4404605,"Binoc",1,2,2670.20000000019,410,150,"Image5_three.PNG",1
"379",431,4404605,"Binoc",1,3,4677.60000000009,110,169,"Image5_three.PNG",1
"380",441,4424285,"Binoc",1,1,2245.10000002384,362,35,"Image5_three.PNG",1
"381",442,4424285,"Binoc",1,2,5636.10000002384,109,168,"Image5_three.PNG",1
"382",443,4424285,"Binoc",1,3,6935.5,420,146,"Image5_three.PNG",1
"383",457,4443776,"Binoc",2,1,3798.80000019073,116,166,"Image5_three.PNG",1
"384",458,4443776,"Binoc",2,2,5982.90000009537,431,150,"Image5_three.PNG",1
"385",459,4443776,"Binoc",2,3,7520.7000002861,356,28,"Image5_three.PNG",1
"386",464,4448050,"Binoc",1,1,4087,424,144,"Image5_three.PNG",1
"387",465,4448050,"Binoc",1,2,8394,105,168,"Image5_three.PNG",1
"388",474,4449137,"Binoc",1,1,4341.90000009537,115,167,"Image5_three.PNG",1
"389",475,4449137,"Binoc",1,2,8118.20000004768,429,152,"Image5_three.PNG",1
"390",484,4449574,"Binoc",1,1,1641.09999990463,358,30,"Image5_three.PNG",1
"391",485,4449574,"Binoc",1,2,3617.40000009537,413,150,"Image5_three.PNG",1
"392",486,4449574,"Binoc",1,3,5621.5,108,170,"Image5_three.PNG",1
"393",498,4449717,"Binoc",2,1,2120.59999999404,96,170,"Image5_three.PNG",1
"394",503,4450348,"Binoc",1,1,1380.30000019073,354,30,"Image5_three.PNG",1
"395",504,4450348,"Binoc",1,2,4511.90000009537,398,147,"Image5_three.PNG",1
"396",505,4450348,"Binoc",1,3,5391.70000004768,88,175,"Image5_three.PNG",1
"397",518,4452039,"Binoc",2,1,2267.29999999981,361,30,"Image5_three.PNG",1
"398",519,4452039,"Binoc",2,2,3818.79999999981,428,146,"Image5_three.PNG",1
"399",520,4452039,"Binoc",2,3,7919.19999999972,103,170,"Image5_three.PNG",1
"400",528,4454520,"Binoc",2,1,3136.79999999888,103.798449612403,162,"Image5_three.PNG",1
"401",529,4454520,"Binoc",2,2,8321.29999999888,338.343023255814,34,"Image5_three.PNG",1
"402",534,4332728,"Binoc",1,1,1993,414,148,"Image5_three.PNG",1
"403",535,4332728,"Binoc",1,2,2819,99,168,"Image5_three.PNG",1
"404",550,4336146,"Binoc",2,1,1313.60000000149,361,32,"Image5_three.PNG",1
"405",551,4336146,"Binoc",2,2,2057.30000000447,420,148,"Image5_three.PNG",1
"406",552,4336146,"Binoc",2,3,3465.89999999851,113,173,"Image5_three.PNG",1
"407",561,4372219,"Binoc",2,1,4168.20000000298,413,150,"Image5_three.PNG",1
"408",562,4372219,"Binoc",2,2,8531,100,166,"Image5_three.PNG",1
"409",570,4379880,"Binoc",2,1,5151,102,172,"Image5_three.PNG",1
"410",571,4379880,"Binoc",2,2,8084,422,155,"Image5_three.PNG",1
"411",572,4379880,"Binoc",2,3,9363,354,29,"Image5_three.PNG",1
"412",582,4392148,"Binoc",2,1,2838.89999997616,100,165,"Image5_three.PNG",1
"413",583,4392148,"Binoc",2,2,4515.79999998212,416,152,"Image5_three.PNG",1
"414",584,4392148,"Binoc",2,3,6704.39999997616,355,33,"Image5_three.PNG",1
"415",592,4445309,"Binoc",2,1,2750.20000004768,364,34,"Image5_three.PNG",1
"416",593,4445309,"Binoc",2,2,7876.39999997616,425,145,"Image5_three.PNG",1
"417",598,4447985,"Binoc",1,1,4356.20000004768,87.1692607003891,165,"Image5_three.PNG",1
"418",612,4449369,"Binoc",1,1,7214.5,410,146,"Image5_three.PNG",1
"419",623,4449420,"Binoc",2,1,4605.80000001192,416.809338521401,146.657657657658,"Image5_three.PNG",1
"420",628,4452506,"Binoc",2,1,3183,97,170,"Image5_three.PNG",1
"421",629,4452506,"Binoc",2,2,9449.00000000001,357,30,"Image5_three.PNG",1
"422",639,4450899,"Binoc",2,1,2147.69999980927,350,33,"Image5_three.PNG",1
"423",640,4450899,"Binoc",2,2,3894.19999980927,98,176,"Image5_three.PNG",1
"424",641,4450899,"Binoc",2,3,5086.69999980927,420,151,"Image5_three.PNG",1
"425",651,4429865,"Binoc",2,1,1741.16500001401,96,170,"Image5_three.PNG",1
"426",652,4429865,"Binoc",2,2,4934.93999959901,362,32,"Image5_three.PNG",1
"427",653,4429865,"Binoc",2,3,6265.33999992535,431,154,"Image5_three.PNG",1
"428",658,4408537,"Binoc",1,1,2317.70000004768,102,168,"Image5_three.PNG",1
"429",659,4408537,"Binoc",1,2,3336.30000019073,419,144,"Image5_three.PNG",1
"430",660,4408537,"Binoc",1,3,9966.5,364,39,"Image5_three.PNG",1
"431",672,4354253,"Binoc",2,1,1835.20000000112,101,172,"Image5_three.PNG",1
"432",673,4354253,"Binoc",2,2,9686.90000000037,353,33,"Image5_three.PNG",1
"433",678,4334877,"Binoc",1,1,3301,372,24,"Image5_three.PNG",1
"434",679,4334877,"Binoc",1,2,4164.70000004768,358,28,"Image5_three.PNG",1
"435",680,4334877,"Binoc",1,3,6490.60000002384,91,170,"Image5_three.PNG",1
"436",690,4333569,"Binoc",1,1,3446.5,358,32,"Image5_three.PNG",1
"437",691,4333569,"Binoc",1,2,6418.80000019073,421,151,"Image5_three.PNG",1
"438",692,4333569,"Binoc",1,3,7911.30000019073,99,177,"Image5_three.PNG",1
"439",8,4333590,"Mono",2,1,1749.40000000014,420,147,"Image6_many.PNG",1
"440",9,4333590,"Mono",2,2,2856,94,176,"Image6_many.PNG",1
"441",10,4333590,"Mono",2,3,4171.19999999995,158,53,"Image6_many.PNG",1
"442",11,4333590,"Mono",2,4,7359.80000000005,497,89,"Image6_many.PNG",1
"443",16,4334401,"Mono",1,1,4087.59999990463,355,33,"Image6_many.PNG",1
"444",17,4334401,"Mono",1,2,9328.59999990463,481,94,"Image6_many.PNG",1
"445",26,4339358,"Mono",2,1,2551.10000002384,342,29,"Image6_many.PNG",1
"446",27,4339358,"Mono",2,2,4750.89999997616,483,95,"Image6_many.PNG",1
"447",28,4339358,"Mono",2,3,6353,409,150,"Image6_many.PNG",1
"448",33,4384320,"Mono",1,1,2663.69999992847,104,173,"Image6_many.PNG",1
"449",34,4384320,"Mono",1,2,3953.89999997616,177,53,"Image6_many.PNG",1
"450",35,4384320,"Mono",1,3,8093.79999995232,354,29,"Image6_many.PNG",1
"451",36,4384320,"Mono",1,4,9979.60000002384,431,152,"Image6_many.PNG",1
"452",46,4443776,"Mono",2,1,1819.09999990463,344,26,"Image6_many.PNG",1
"453",47,4443776,"Mono",2,2,3519.90000009537,96,171,"Image6_many.PNG",1
"454",48,4443776,"Mono",2,3,6144.5,173,47,"Image6_many.PNG",1
"455",49,4443776,"Mono",2,4,8134.69999980927,429,153,"Image6_many.PNG",1
"456",50,4443776,"Mono",2,5,9592.40000009537,487,88,"Image6_many.PNG",1
"457",56,4448050,"Mono",2,1,5620,490,86,"Image6_many.PNG",1
"458",57,4448050,"Mono",2,2,7920,411,154,"Image6_many.PNG",1
"459",62,4449137,"Mono",1,1,1729.39999985695,485,92,"Image6_many.PNG",1
"460",63,4449137,"Mono",1,2,3641.59999990463,371,30,"Image6_many.PNG",1
"461",64,4449137,"Mono",1,3,5469.19999980927,110,172,"Image6_many.PNG",1
"462",74,4449717,"Mono",2,1,3426.29999999702,105,163,"Image6_many.PNG",1
"463",75,4449717,"Mono",2,2,4862.5,97,175,"Image6_many.PNG",1
"464",76,4449717,"Mono",2,3,7000.69999998808,163,52,"Image6_many.PNG",1
"465",77,4449717,"Mono",2,4,9800.39999999106,356,215,"Image6_many.PNG",0
"466",84,4452039,"Mono",2,1,3073.30000000005,151,48,"Image6_many.PNG",1
"467",85,4452039,"Mono",2,2,5346.69999999995,105,175,"Image6_many.PNG",1
"468",86,4452039,"Mono",2,3,7440.30000000005,430,150,"Image6_many.PNG",1
"469",87,4452039,"Mono",2,4,9253.89999999991,492,90,"Image6_many.PNG",1
"470",94,4454520,"Mono",2,1,2953.69999999925,150,48.2152466367713,"Image6_many.PNG",1
"471",95,4454520,"Mono",2,2,4439.79999999888,375,28.1255605381166,"Image6_many.PNG",1
"472",96,4454520,"Mono",2,3,5853.29999999888,466,92.4125560538117,"Image6_many.PNG",1
"473",101,4449574,"Mono",1,1,2153.69999980927,356,35,"Image6_many.PNG",1
"474",102,4449574,"Mono",1,2,3458.5,477,92,"Image6_many.PNG",1
"475",103,4449574,"Mono",1,3,5351.40000009537,103,172,"Image6_many.PNG",1
"476",110,4424285,"Mono",1,1,2010.69999998808,357,35,"Image6_many.PNG",1
"477",111,4424285,"Mono",1,2,3108.69999998808,167,57,"Image6_many.PNG",1
"478",112,4424285,"Mono",1,3,4076.09999999404,475,89,"Image6_many.PNG",1
"479",122,4404605,"Mono",2,1,1145.79999999981,481,90,"Image6_many.PNG",1
"480",123,4404605,"Mono",2,2,1770.20000000019,363,29,"Image6_many.PNG",1
"481",124,4404605,"Mono",2,3,3138.70000000019,161,49,"Image6_many.PNG",1
"482",125,4404605,"Mono",2,4,4197.20000000019,104,171,"Image6_many.PNG",1
"483",126,4404605,"Mono",2,5,7525.60000000009,413,156,"Image6_many.PNG",1
"484",131,4381159,"Mono",1,1,2019.09499999601,169,54,"Image6_many.PNG",1
"485",132,4381159,"Mono",1,2,3124.1549999686,108,171,"Image6_many.PNG",1
"486",133,4381159,"Mono",1,3,5778.69499998633,483,95,"Image6_many.PNG",1
"487",141,4373538,"Mono",2,1,2284,98,170,"Image6_many.PNG",1
"488",142,4373538,"Mono",2,2,3326,167,46,"Image6_many.PNG",1
"489",143,4373538,"Mono",2,3,6614.30000001192,415,146,"Image6_many.PNG",1
"490",144,4373538,"Mono",2,4,7888.20000004768,356,31,"Image6_many.PNG",1
"491",149,4336342,"Mono",1,1,3563,477,89,"Image6_many.PNG",1
"492",150,4336342,"Mono",1,2,5414,420,156,"Image6_many.PNG",1
"493",151,4336342,"Mono",1,3,6631,367,36,"Image6_many.PNG",1
"494",158,4333147,"Mono",1,1,3282.40000009537,102,174,"Image6_many.PNG",1
"495",159,4333147,"Mono",1,2,6416.29999995232,176,49,"Image6_many.PNG",1
"496",168,4450348,"Mono",2,1,2269.20000004768,172,51,"Image6_many.PNG",1
"497",169,4450348,"Mono",2,2,3684.70000004768,349,31,"Image6_many.PNG",1
"498",170,4450348,"Mono",2,3,4765.90000009537,504,93,"Image6_many.PNG",1
"499",171,4450348,"Mono",2,4,5698.10000014305,431,149,"Image6_many.PNG",1
"500",172,4450348,"Mono",2,5,8634.5,93,173,"Image6_many.PNG",1
"501",179,4334877,"Mono",2,1,1585.30000007153,94,172,"Image6_many.PNG",1
"502",180,4334877,"Mono",2,2,2909.5,167,51,"Image6_many.PNG",1
"503",181,4334877,"Mono",2,3,5448.10000002384,422,148,"Image6_many.PNG",1
"504",182,4334877,"Mono",2,4,6878.70000004768,355,29,"Image6_many.PNG",1
"505",190,4392148,"Mono",2,1,1492.30000001192,162,47,"Image6_many.PNG",1
"506",191,4392148,"Mono",2,2,2596.30000001192,101,168,"Image6_many.PNG",1
"507",192,4392148,"Mono",2,3,4713.60000002384,354,29,"Image6_many.PNG",1
"508",193,4392148,"Mono",2,4,5808.20000001788,476,91,"Image6_many.PNG",1
"509",194,4392148,"Mono",2,5,7684.60000002384,420,146,"Image6_many.PNG",1
"510",199,4447985,"Mono",1,1,2599.5,486,86.6133333333333,"Image6_many.PNG",1
"511",200,4447985,"Mono",1,2,4311.79999995232,430,154.311111111111,"Image6_many.PNG",1
"512",208,4449420,"Mono",2,1,2678.59999999404,429.836257309942,153,"Image6_many.PNG",1
"513",209,4449420,"Mono",2,2,7589.90000000596,180.350877192982,54,"Image6_many.PNG",1
"514",217,4450899,"Mono",2,1,1694.5,350,29,"Image6_many.PNG",1
"515",218,4450899,"Mono",2,2,6231.70000004768,100,175,"Image6_many.PNG",1
"516",223,4452506,"Mono",1,1,3899,480,87,"Image6_many.PNG",1
"517",224,4452506,"Mono",1,2,6632,413,149,"Image6_many.PNG",1
"518",230,4449369,"Mono",1,1,3017.40000009537,479,95,"Image6_many.PNG",1
"519",237,4449101,"Mono",2,1,2990.79999998212,105.204678362573,171,"Image6_many.PNG",1
"520",238,4449101,"Mono",2,2,6734.69999998808,354.690058479532,28,"Image6_many.PNG",1
"521",239,4449101,"Mono",2,3,7990.90000000596,505.98440545809,94,"Image6_many.PNG",1
"522",245,4445309,"Mono",2,1,3101.20000004768,163,57,"Image6_many.PNG",1
"523",253,4429865,"Mono",2,1,1075.25999983773,164,45,"Image6_many.PNG",1
"524",254,4429865,"Mono",2,2,2037.3899997212,99,170,"Image6_many.PNG",1
"525",255,4429865,"Mono",2,3,3179.88499999046,420,146,"Image6_many.PNG",1
"526",256,4429865,"Mono",2,4,4200.33499971032,372,35,"Image6_many.PNG",1
"527",257,4429865,"Mono",2,5,6916.60499991849,484,89,"Image6_many.PNG",1
"528",265,4408537,"Mono",2,1,1403.59999990463,162,52,"Image6_many.PNG",1
"529",266,4408537,"Mono",2,2,2375.29999995232,356,23,"Image6_many.PNG",1
"530",267,4408537,"Mono",2,3,3623.39999985695,472,92,"Image6_many.PNG",1
"531",268,4408537,"Mono",2,4,4485.5,422,155,"Image6_many.PNG",1
"532",269,4408537,"Mono",2,5,6180.09999990463,112,170,"Image6_many.PNG",1
"533",274,4379880,"Mono",1,1,1776,93,168,"Image6_many.PNG",1
"534",275,4379880,"Mono",1,2,4312,420,154,"Image6_many.PNG",1
"535",276,4379880,"Mono",1,3,5955,355,32,"Image6_many.PNG",1
"536",277,4379880,"Mono",1,4,7258,163,54,"Image6_many.PNG",1
"537",287,4372219,"Mono",2,1,1613.20000000298,98,174,"Image6_many.PNG",1
"538",288,4372219,"Mono",2,2,4642.70000000298,160,50,"Image6_many.PNG",1
"539",289,4372219,"Mono",2,3,5600.20000000298,354,30,"Image6_many.PNG",1
"540",290,4372219,"Mono",2,4,7451.10000000149,480,90,"Image6_many.PNG",1
"541",291,4372219,"Mono",2,5,8164,413,156,"Image6_many.PNG",1
"542",296,4354253,"Mono",1,1,1622.70000000112,162,55,"Image6_many.PNG",1
"543",297,4354253,"Mono",1,2,2649,96,169,"Image6_many.PNG",1
"544",298,4354253,"Mono",1,3,5177.90000000037,480,93,"Image6_many.PNG",1
"545",299,4354253,"Mono",1,4,7142.80000000075,347,29,"Image6_many.PNG",1
"546",307,4336146,"Mono",1,1,2589.39999999851,91,172,"Image6_many.PNG",1
"547",308,4336146,"Mono",1,2,3635.70000000298,164,54,"Image6_many.PNG",1
"548",309,4336146,"Mono",1,3,4333.10000000149,365,34,"Image6_many.PNG",1
"549",310,4336146,"Mono",1,4,5224.89999999851,473,95,"Image6_many.PNG",1
"550",311,4336146,"Mono",1,5,6145.5,435,152,"Image6_many.PNG",1
"551",322,4333569,"Mono",2,1,2119.80000019073,350,24,"Image6_many.PNG",1
"552",323,4333569,"Mono",2,2,4111.19999980927,483,100,"Image6_many.PNG",1
"553",324,4333569,"Mono",2,3,5546.69999980927,415,153,"Image6_many.PNG",1
"554",325,4333569,"Mono",2,4,8695.5,163,52,"Image6_many.PNG",1
"555",330,4332728,"Mono",1,1,1436,421,150,"Image6_many.PNG",1
"556",331,4332728,"Mono",1,2,2083,482,94,"Image6_many.PNG",1
"557",332,4332728,"Mono",1,3,3135,157,49,"Image6_many.PNG",1
"558",333,4332728,"Mono",1,4,5793,94,170,"Image6_many.PNG",1
"559",334,4332728,"Mono",1,5,8145,355,34,"Image6_many.PNG",1
"560",342,4333147,"Binoc",1,1,3567,106,174,"Image6_many.PNG",1
"561",343,4333147,"Binoc",1,2,5887.79999995232,173,50,"Image6_many.PNG",1
"562",344,4333147,"Binoc",1,3,7769.79999995232,408,150,"Image6_many.PNG",1
"563",354,4333590,"Binoc",2,1,2808.30000000028,422,150,"Image6_many.PNG",1
"564",355,4333590,"Binoc",2,2,3772.70000000019,490,86,"Image6_many.PNG",1
"565",356,4333590,"Binoc",2,3,5433.90000000037,107,174,"Image6_many.PNG",1
"566",357,4333590,"Binoc",2,4,6926,159,50,"Image6_many.PNG",1
"567",365,4334401,"Binoc",2,1,1508,157,47,"Image6_many.PNG",1
"568",366,4334401,"Binoc",2,2,2396.09999990463,352,31,"Image6_many.PNG",1
"569",367,4334401,"Binoc",2,3,5257.59999990463,416,163,"Image6_many.PNG",0
"570",368,4334401,"Binoc",2,4,6261.5,416,151,"Image6_many.PNG",1
"571",369,4334401,"Binoc",2,5,7084,421,154,"Image6_many.PNG",1
"572",370,4334401,"Binoc",2,6,9668.09999990463,100,175,"Image6_many.PNG",1
"573",375,4336342,"Binoc",1,1,2632,106,171,"Image6_many.PNG",1
"574",376,4336342,"Binoc",1,2,3929,173,54,"Image6_many.PNG",1
"575",377,4336342,"Binoc",1,3,4874,350,28,"Image6_many.PNG",1
"576",378,4336342,"Binoc",1,4,7517,480,85,"Image6_many.PNG",1
"577",379,4336342,"Binoc",1,5,9510,479,95,"Image6_many.PNG",1
"578",389,4339358,"Binoc",2,1,2087.80000001192,172,52,"Image6_many.PNG",1
"579",390,4339358,"Binoc",2,2,4855.59999996424,345,28,"Image6_many.PNG",1
"580",391,4339358,"Binoc",2,3,5953.89999997616,482,93,"Image6_many.PNG",1
"581",392,4339358,"Binoc",2,4,8597.19999998808,99,175,"Image6_many.PNG",1
"582",397,4373538,"Binoc",1,1,1656.5,167,50,"Image6_many.PNG",1
"583",398,4373538,"Binoc",1,2,2375.09999996424,349,34,"Image6_many.PNG",1
"584",399,4373538,"Binoc",1,3,3621.5,423,152,"Image6_many.PNG",1
"585",400,4373538,"Binoc",1,4,9656.59999996424,112,165,"Image6_many.PNG",1
"586",408,4381159,"Binoc",1,1,1606.48999991827,162,52,"Image6_many.PNG",1
"587",409,4381159,"Binoc",1,2,2966.17499995045,96,170,"Image6_many.PNG",1
"588",410,4381159,"Binoc",1,3,5486.9249999756,411,149,"Image6_many.PNG",1
"589",411,4381159,"Binoc",1,4,7014.93999990635,479,90,"Image6_many.PNG",1
"590",412,4381159,"Binoc",1,5,7918.07000001427,362,35,"Image6_many.PNG",1
"591",418,4384320,"Binoc",1,1,1945.70000004768,91,172,"Image6_many.PNG",1
"592",419,4384320,"Binoc",1,2,2615.60000002384,152,50,"Image6_many.PNG",1
"593",420,4384320,"Binoc",1,3,4681.70000004768,413,149,"Image6_many.PNG",1
"594",421,4384320,"Binoc",1,4,6557.60000002384,353,33,"Image6_many.PNG",1
"595",432,4404605,"Binoc",2,1,1268.20000000019,164,48,"Image6_many.PNG",1
"596",433,4404605,"Binoc",2,2,2291.79999999981,100,180,"Image6_many.PNG",1
"597",434,4404605,"Binoc",2,3,3411.79999999981,341,34,"Image6_many.PNG",1
"598",435,4404605,"Binoc",2,4,4364.89999999991,435,151,"Image6_many.PNG",1
"599",436,4404605,"Binoc",2,5,8734.5,467,88,"Image6_many.PNG",1
"600",444,4424285,"Binoc",2,1,1358.40000000596,166,51,"Image6_many.PNG",1
"601",445,4424285,"Binoc",2,2,2325.69999998808,348,37,"Image6_many.PNG",1
"602",446,4424285,"Binoc",2,3,3242.09999999404,397,151,"Image6_many.PNG",1
"603",447,4424285,"Binoc",2,4,4190,455,89,"Image6_many.PNG",1
"604",448,4424285,"Binoc",2,5,5728.90000000596,113,170,"Image6_many.PNG",1
"605",453,4443776,"Binoc",1,1,1683.90000009537,167,53,"Image6_many.PNG",1
"606",454,4443776,"Binoc",1,2,2739.69999980927,105,176,"Image6_many.PNG",1
"607",455,4443776,"Binoc",1,3,4877.40000009537,426,148,"Image6_many.PNG",1
"608",456,4443776,"Binoc",1,4,5918.80000019073,342,30,"Image6_many.PNG",1
"609",466,4448050,"Binoc",2,1,2499,471,82,"Image6_many.PNG",1
"610",467,4448050,"Binoc",2,2,7793,178,47,"Image6_many.PNG",1
"611",468,4448050,"Binoc",2,3,9291,124,177,"Image6_many.PNG",1
"612",469,4448050,"Binoc",2,4,9664,110,174,"Image6_many.PNG",1
"613",476,4449137,"Binoc",2,1,1658.79999995232,462,89,"Image6_many.PNG",1
"614",477,4449137,"Binoc",2,2,2746.59999990463,360,29,"Image6_many.PNG",1
"615",478,4449137,"Binoc",2,3,5038.79999995232,426,151,"Image6_many.PNG",1
"616",479,4449137,"Binoc",2,4,9578.79999995232,154,49,"Image6_many.PNG",1
"617",487,4449574,"Binoc",2,1,2306.09999990463,162,55,"Image6_many.PNG",1
"618",488,4449574,"Binoc",2,2,3669.69999980927,358,28,"Image6_many.PNG",1
"619",489,4449574,"Binoc",2,3,5126.19999980927,479,92,"Image6_many.PNG",1
"620",490,4449574,"Binoc",2,4,7211.09999990463,89,169,"Image6_many.PNG",1
"621",495,4449717,"Binoc",1,1,2450.09999999404,105,172,"Image6_many.PNG",1
"622",496,4449717,"Binoc",1,2,5098.70000000298,420,150,"Image6_many.PNG",1
"623",497,4449717,"Binoc",1,3,6126.5,485,95,"Image6_many.PNG",1
"624",506,4450348,"Binoc",2,1,1347.29999995232,169,52,"Image6_many.PNG",1
"625",507,4450348,"Binoc",2,2,2378.29999995232,359,37,"Image6_many.PNG",1
"626",508,4450348,"Binoc",2,3,3872.70000004768,469,88,"Image6_many.PNG",1
"627",509,4450348,"Binoc",2,4,6650.20000004768,425,153,"Image6_many.PNG",1
"628",510,4450348,"Binoc",2,5,8497.5,100,165,"Image6_many.PNG",1
"629",515,4452039,"Binoc",1,1,3292.70000000019,412,155,"Image6_many.PNG",1
"630",516,4452039,"Binoc",1,2,6640.10000000009,160,49,"Image6_many.PNG",1
"631",517,4452039,"Binoc",1,3,8725,107,177,"Image6_many.PNG",1
"632",525,4454520,"Binoc",1,1,3115.80000000075,97,170.762331838565,"Image6_many.PNG",1
"633",526,4454520,"Binoc",1,2,4982.90000000037,162,62.2780269058296,"Image6_many.PNG",0
"634",527,4454520,"Binoc",1,3,7422.40000000037,413,147.659192825112,"Image6_many.PNG",1
"635",536,4332728,"Binoc",2,1,2791,94,171,"Image6_many.PNG",1
"636",537,4332728,"Binoc",2,2,3446,160,50,"Image6_many.PNG",1
"637",538,4332728,"Binoc",2,3,4596,354,32,"Image6_many.PNG",1
"638",539,4332728,"Binoc",2,4,5705,419,155,"Image6_many.PNG",1
"639",540,4332728,"Binoc",2,5,6416,479,90,"Image6_many.PNG",1
"640",545,4336146,"Binoc",1,1,1820.5,162,54,"Image6_many.PNG",1
"641",546,4336146,"Binoc",1,2,3884.60000000149,417,155,"Image6_many.PNG",1
"642",547,4336146,"Binoc",1,3,6002.70000000298,110,166,"Image6_many.PNG",1
"643",548,4336146,"Binoc",1,4,7168.30000000447,489,85,"Image6_many.PNG",1
"644",549,4336146,"Binoc",1,5,8026.60000000149,489,92,"Image6_many.PNG",1
"645",557,4372219,"Binoc",1,1,2945.89999999851,417,148,"Image6_many.PNG",1
"646",558,4372219,"Binoc",1,2,4226,484,89,"Image6_many.PNG",1
"647",559,4372219,"Binoc",1,3,5418,153,56,"Image6_many.PNG",1
"648",560,4372219,"Binoc",1,4,6828.29999999702,163,52,"Image6_many.PNG",1
"649",567,4379880,"Binoc",1,1,1796.99999999999,89,176,"Image6_many.PNG",1
"650",568,4379880,"Binoc",1,2,4767.99999999999,427,156,"Image6_many.PNG",1
"651",569,4379880,"Binoc",1,3,8836.99999999999,352,28,"Image6_many.PNG",1
"652",577,4392148,"Binoc",1,1,1563.59999999404,353,30,"Image6_many.PNG",1
"653",578,4392148,"Binoc",1,2,2818.79999998212,476,94,"Image6_many.PNG",1
"654",579,4392148,"Binoc",1,3,3853,421,144,"Image6_many.PNG",1
"655",580,4392148,"Binoc",1,4,5189.29999998212,415,158,"Image6_many.PNG",1
"656",581,4392148,"Binoc",1,5,8229.79999998212,417,149,"Image6_many.PNG",1
"657",589,4445309,"Binoc",1,1,2660.39999997616,348,33,"Image6_many.PNG",1
"658",590,4445309,"Binoc",1,2,4435.5,414,159,"Image6_many.PNG",1
"659",591,4445309,"Binoc",1,3,8261.5,177,47,"Image6_many.PNG",1
"660",599,4447985,"Binoc",2,1,3646.19999980927,352,26.88,"Image6_many.PNG",1
"661",600,4447985,"Binoc",2,2,6166.09999990463,417,156.302222222222,"Image6_many.PNG",1
"662",605,4449101,"Binoc",1,1,2700.70000001788,476.927875243665,90,"Image6_many.PNG",1
"663",606,4449101,"Binoc",1,2,5428.80000001192,348.678362573099,30,"Image6_many.PNG",1
"664",607,4449101,"Binoc",1,3,7916.5,115.224171539961,171,"Image6_many.PNG",1
"665",613,4449369,"Binoc",2,1,3029.20000004768,413,152,"Image6_many.PNG",1
"666",614,4449369,"Binoc",2,2,4767.5,485,88,"Image6_many.PNG",1
"667",615,4449369,"Binoc",2,3,7234.09999990463,166,50,"Image6_many.PNG",1
"668",616,4449369,"Binoc",2,4,9814.20000004768,102,168,"Image6_many.PNG",1
"669",621,4449420,"Binoc",1,1,5071.69999998808,485.945419103314,90,"Image6_many.PNG",1
"670",622,4449420,"Binoc",1,2,8307.59999999404,358.697855750487,31,"Image6_many.PNG",1
"671",634,4450899,"Binoc",1,1,3126.60000014305,350,33,"Image6_many.PNG",1
"672",635,4450899,"Binoc",1,2,4423.40000009537,172,53,"Image6_many.PNG",1
"673",636,4450899,"Binoc",1,3,5926.80000019073,107,179,"Image6_many.PNG",1
"674",637,4450899,"Binoc",1,4,8709.80000019073,89,162,"Image6_many.PNG",1
"675",638,4450899,"Binoc",1,5,9494.30000019073,92,168,"Image6_many.PNG",1
"676",646,4429865,"Binoc",1,1,1357.3399996385,165,51,"Image6_many.PNG",1
"677",647,4429865,"Binoc",1,2,2389.20999970287,363,29,"Image6_many.PNG",1
"678",648,4429865,"Binoc",1,3,3239.35499973595,411,145,"Image6_many.PNG",1
"679",649,4429865,"Binoc",1,4,5410.59499979019,415,151,"Image6_many.PNG",1
"680",650,4429865,"Binoc",1,5,6893.31499999389,104,175,"Image6_many.PNG",1
"681",661,4408537,"Binoc",2,1,1803.10000014305,169,57,"Image6_many.PNG",1
"682",662,4408537,"Binoc",2,2,3655,348,33,"Image6_many.PNG",1
"683",663,4408537,"Binoc",2,3,5283.70000004768,485,98,"Image6_many.PNG",1
"684",668,4354253,"Binoc",1,1,1559.30000000075,159,54,"Image6_many.PNG",1
"685",669,4354253,"Binoc",1,2,2724.09999999963,357,29,"Image6_many.PNG",1
"686",670,4354253,"Binoc",1,3,4857.5,480,91,"Image6_many.PNG",1
"687",671,4354253,"Binoc",1,4,7063.59999999963,94,171,"Image6_many.PNG",1
"688",681,4334877,"Binoc",2,1,1528.29999995232,92,174,"Image6_many.PNG",1
"689",682,4334877,"Binoc",2,2,2759.09999990463,355,31,"Image6_many.PNG",1
"690",683,4334877,"Binoc",2,3,3852.19999992847,172,53,"Image6_many.PNG",1
"691",684,4334877,"Binoc",2,4,4948.79999995232,472,85,"Image6_many.PNG",1
"692",685,4334877,"Binoc",2,5,5798.09999990463,477,95,"Image6_many.PNG",1
"693",693,4333569,"Binoc",2,1,2955.7999997139,418,154,"Image6_many.PNG",1
"694",694,4333569,"Binoc",2,2,4344.59999990463,479,91,"Image6_many.PNG",1
"695",695,4333569,"Binoc",2,3,5935.59999990463,349,30,"Image6_many.PNG",1
"696",696,4333569,"Binoc",2,4,6963.39999961853,160,51,"Image6_many.PNG",1
"697",697,4333569,"Binoc",2,5,8437.2999997139,113,170,"Image6_many.PNG",1
